id,cnt,gx,gy,gz,ax,ay,az,pls
0,0,1598,-576,-5888,-1438,2316,17693,0
0,1,2162,-1244,-5186,-1286,2505,17803,0
0,2,1858,-1616,-4516,-1182,2826,17762,0
0,3,1318,-2076,-3672,-1071,2847,18029,0
0,4,302,-2596,-3788,-662,2616,18074,0
0,5,-420,-2390,-2764,-235,2410,18030,0
0,6,-1412,-3004,-2568,212,1814,17925,0
0,7,-1490,-2286,-3478,695,779,17812,0
0,8,-1016,-842,-3190,983,-50,17977,0
0,9,32,-1420,-4552,1030,-862,18230,0
0,10,1226,-842,-5842,663,-719,18233,0
0,11,1160,-1882,-6154,65,-19,17942,0
0,12,268,-3142,-6616,-406,840,17440,0
0,13,-768,-4818,-5716,-218,1293,16615,0
0,14,-1718,-4736,-4966,424,1099,15795,0
0,15,-1468,-4182,-4552,1049,491,15237,0
0,16,-1140,-2900,-4112,1298,-99,14923,0
0,17,-758,-1628,-4748,1327,-80,14637,0
0,18,-860,394,-5774,1249,-79,14508,0
0,19,-792,1446,-5094,879,-225,14856,0
0,20,-420,2428,-4874,606,-474,15606,0
0,21,482,3320,-5290,240,-482,16363,0
0,22,1034,2242,-5370,46,-60,16827,0
0,23,672,2080,-5116,-270,398,16928,0
0,24,42,648,-5888,-680,636,16680,0
0,25,-174,-820,-5728,-891,909,16204,0
0,26,-724,-508,-5762,-1052,891,15484,0
0,27,-124,-1718,-4652,-892,684,14949,0
0,28,640,-726,-5094,-409,703,14593,0
0,29,1440,-750,-4424,-342,932,14211,0
0,30,1170,624,-3582,-396,1619,14112,0
0,31,268,-404,-3052,-570,2349,14030,0
0,32,-1118,128,-3236,-682,2388,14068,0
0,33,-1298,452,-2430,-552,1795,14148,0
0,34,-792,740,-1010,-732,916,14354,0
0,35,20,1238,-1392,-504,196,14812,0
0,36,1024,1376,-1922,-510,-90,15357,0
0,37,1892,1676,-1910,-801,579,15556,0
0,38,818,798,-2188,-1075,2063,15491,0
0,39,-804,-496,-2464,-1363,2801,15336,0
0,40,-2212,-1212,-1206,-1031,2661,14832,0
0,41,-2336,-1270,84,-642,2107,14433,0
0,42,-2042,-322,-296,-255,1540,14048,0
0,43,-1242,-404,718,-196,891,13970,0
0,44,-328,890,-342,-138,958,14173,0
0,45,132,810,-366,-365,1398,14471,0
0,46,-94,2058,-804,-575,1986,14598,0
0,47,-1018,1434,-400,-756,2428,14786,0
0,48,-1884,1168,868,-827,2358,14966,0
0,49,-2078,902,396,-653,1811,15134,0
0,50,-1312,1364,188,-474,961,15341,0
0,51,-826,2128,476,-594,681,15558,0
0,52,-396,2718,16,-942,1382,15796,0
0,53,-1682,2220,-158,-1282,2530,15985,0
0,54,-2944,2902,730,-1500,2860,16054,0
0,55,-3658,2322,2218,-1516,2221,16503,0
0,56,-3328,1618,1688,-1328,1310,17079,0
0,57,-3092,2000,2702,-1115,706,17620,0
0,58,-2720,1954,2080,-1577,563,18064,0
0,59,-3350,2024,1548,-1916,894,18271,0
0,60,-5054,2544,1480,-2065,1130,18444,0
0,61,-5450,2890,2298,-2002,694,18760,0
0,62,-5606,2590,2772,-1810,-169,18995,0
0,63,-4604,2970,2564,-1659,-826,19029,0
0,64,-4186,3526,2668,-1693,-1398,18944,0
0,65,-4006,3906,1802,-1743,-1697,19037,0
0,66,-3804,3734,1122,-1875,-1633,19221,0
0,67,-3464,4404,-112,-2245,-1177,19330,0
0,68,-2494,4660,-54,-2241,-659,19169,0
0,69,-1502,4360,420,-2567,-262,18989,0
0,70,-500,3294,384,-3152,-31,18579,0
0,71,-284,208,1318,-3464,-21,18122,0
0,72,168,-714,1664,-3345,34,17494,0
0,73,-476,-2518,1710,-3117,156,16643,0
0,74,-1312,-3130,1260,-2686,-272,15737,0
0,75,-1040,-3384,1492,-2465,-791,14981,0
0,76,-1140,-3200,1964,-2138,-849,14320,0
0,77,-610,-1732,1722,-2051,-823,13899,0
0,78,10,-508,1538,-2241,-1269,13863,0
0,79,674,348,1560,-2395,-1380,14323,0
0,80,1058,-92,1434,-2662,-1395,14747,0
0,81,776,-44,710,-2975,-885,14972,0
0,82,-24,-982,1756,-3302,-132,14978,0
0,83,-1344,-1386,1756,-3353,420,14772,0
0,84,-2628,-1802,1976,-3241,315,14499,0
0,85,-3204,-2922,1894,-2835,-37,14230,0
0,86,-2922,-2588,2240,-2530,-686,14257,0
0,87,-2042,-2772,2252,-2006,-1275,14421,0
0,88,-726,-2368,1606,-2086,-1633,14528,0
0,89,-114,-2240,1018,-2125,-1342,14449,0
0,90,-960,-2484,638,-2249,-207,14467,0
0,91,-1558,-2796,246,-2173,500,14325,0
0,92,-2202,-3534,488,-2067,438,14224,0
0,93,-1628,-2182,926,-1769,-105,14286,0
0,94,-622,-2506,1342,-1615,-498,14477,0
0,95,-218,-1790,592,-1468,-272,14554,0
0,96,-422,-1940,708,-1342,176,14823,0
0,97,-884,-1408,326,-1424,455,15112,0
0,98,-1040,-1386,-366,-1478,653,15246,0
0,99,-994,-1304,-1230,-1325,647,15191,0
0,100,-408,-634,-608,-1315,369,15194,0
0,101,990,-1086,84,-1114,113,15361,0
0,102,1406,-1814,-1184,-1182,333,15596,0
0,103,1158,-1558,-1300,-1220,916,15597,0
0,104,382,-1802,-1992,-1241,1670,15512,0
0,105,-408,-2426,-1450,-1129,2298,15292,0
0,106,-828,-2714,-1254,-1019,1999,15136,0
0,107,-352,-3062,-1460,-540,1458,15012,0
0,108,630,-1802,-918,-295,1025,15015,0
0,109,1326,-1190,-1668,-362,656,15462,0
0,110,1948,176,-2360,-282,585,16233,0
0,111,2422,-228,-2764,-495,434,16961,0
0,112,2524,312,-2926,-608,453,17233,0
0,113,2340,474,-3582,-740,728,17335,0
0,114,2500,70,-4136,-932,1002,17375,0
0,115,2366,914,-3282,-1102,936,17271,0
0,116,2918,1862,-2740,-754,586,17234,0
0,117,3718,3930,-2914,-310,-218,17181,0
0,118,4698,4900,-3848,-102,-905,16991,0
0,119,5722,7154,-4494,109,-951,16813,0
0,120,5048,7986,-3814,41,-1121,16975,0
0,121,4844,8874,-5208,-1066,-928,18006,0
0,122,3064,8242,-5368,-1660,-567,19114,0
0,123,2264,7684,-5692,-2169,-55,20370,0
0,124,2456,5630,-5646,-2776,-320,21202,0
0,125,3426,2266,-6004,-3995,-521,21257,0
0,126,3042,-1894,-5140,-4520,44,20532,0
0,127,840,-5268,-4056,-4108,918,19259,0
0,128,-1366,-7198,-4240,-3442,342,17866,0
0,129,-2078,-7452,-3548,-2802,-860,17093,0
0,130,-2316,-6608,-3132,-2602,-1421,16581,0
0,131,-2078,-5614,-2926,-1961,-1545,16347,0
0,132,-850,-3836,-3018,-1572,-1859,16177,0
0,133,426,-2494,-3986,-1820,-2150,16146,0
0,134,1970,-670,-2890,-2035,-1718,15902,0
0,135,1754,-1294,-3214,-2239,-1120,15731,0
0,136,1452,-762,-2972,-2327,-678,15524,0
0,137,810,-1814,-2936,-2218,-512,15406,0
0,138,1034,-1016,-2972,-2468,-511,15473,0
0,139,1192,-934,-3006,-2571,-240,15356,0
0,140,2014,-1536,-3282,-2737,-45,14975,0
0,141,2036,-1050,-2302,-2571,275,14741,0
0,142,2016,-1328,-712,-2477,549,14293,0
0,143,2262,-1028,-388,-2375,585,13899,0
0,144,1596,-1154,16,-2142,740,13656,0
0,145,562,-136,62,-2035,669,13484,0
0,146,-354,-982,258,-1942,621,13567,0
0,147,-1164,-124,4,-1709,477,13535,0
0,148,-658,266,-216,-1448,271,13728,0
0,149,132,2080,488,-1164,61,14211,0
0,150,1416,1664,708,-1470,-92,14730,0
0,151,2284,2544,592,-1719,260,15099,0
0,152,2556,2658,984,-1812,755,15184,0
0,153,2028,2496,1502,-2039,1144,15295,0
0,154,754,1260,1180,-2325,1562,15359,0
0,155,-140,382,418,-2395,1867,15138,0
0,156,-624,-322,1306,-2269,1731,14920,0
0,157,-488,-426,2286,-1666,1606,14684,0
0,158,-352,624,1894,-1361,1355,14478,0
0,159,86,926,1642,-1172,1269,14365,0
0,160,-340,1204,1400,-1292,1646,14445,0
0,161,-568,1758,2414,-1442,2029,14713,0
0,162,-624,2578,1676,-1480,2232,15239,0
0,163,-238,2820,2240,-1660,2134,15769,0
0,164,606,4484,2286,-1734,1903,16177,0
0,165,1168,4680,2172,-2067,1734,16641,0
0,166,876,5454,2414,-2435,1951,17182,0
0,167,638,4946,3440,-2898,2091,17749,0
0,168,-398,3490,4328,-3189,2062,18365,0
0,169,-1064,3386,4420,-3278,1806,18628,0
0,170,-1718,1400,4282,-3100,1383,18855,0
0,171,-2200,890,4294,-2837,1028,18643,0
0,172,-2504,556,4466,-2619,1034,18337,0
0,173,-3440,208,4398,-2403,917,18013,0
0,174,-3588,324,4536,-2116,570,17810,0
0,175,-2876,1630,3890,-2004,297,17644,0
0,176,-2268,3028,3716,-2063,239,17725,0
0,177,-1230,4404,3094,-2327,146,17880,0
0,178,-374,4750,3278,-2933,250,17941,0
0,179,42,3318,3360,-3205,371,17734,0
0,180,346,3364,2910,-3591,556,17432,0
0,181,-228,2034,3614,-3993,998,17180,0
0,182,-1298,1192,3406,-3675,1041,17076,0
0,183,-1074,394,3762,-3561,58,17208,0
0,184,-318,12,3452,-3528,-533,17480,0
0,185,-16,-126,3336,-3511,-234,17530,0
0,186,-194,-1340,3532,-3708,-44,17296,0
0,187,122,-2010,2610,-3649,-133,16864,0
0,188,-286,-3372,2322,-3499,-275,16295,0
0,189,562,-3466,1838,-3445,-410,15509,0
0,190,1158,-3408,1630,-3269,-309,14817,0
0,191,1644,-3558,926,-3041,122,14253,0
0,192,1790,-4066,614,-2982,375,13729,0
0,193,2004,-3614,1090,-3024,710,13317,0
0,194,2014,-3638,846,-2940,1240,12929,0
0,195,1270,-3928,1260,-2811,1509,12686,0
0,196,1112,-3396,2068,-2689,1413,12582,0
0,197,696,-4552,1664,-2711,1079,12660,0
0,198,120,-5406,1284,-2226,919,12765,0
0,199,-680,-4828,834,-1888,668,12985,0
0,200,-1220,-4240,904,-1909,705,13052,0
0,201,-1546,-3592,580,-1829,1008,13285,0
0,202,-1784,-3778,212,-1559,1187,13400,0
0,203,-994,-2334,-8,-1428,935,13785,0
0,204,-2,-1524,176,-1222,463,14185,0
0,205,740,-1512,-572,-1415,451,14553,0
0,206,618,-1628,-1126,-1620,990,14782,0
0,207,-534,-2252,-1530,-1660,1431,14999,0
0,208,-1142,-1710,-1346,-1679,1757,15121,0
0,209,-1120,-2276,-1104,-1580,1828,15209,0
0,210,-576,-1894,-1034,-1486,1549,15306,0
0,211,120,-2286,-1934,-1314,1226,15383,0
0,212,968,-2726,-2384,-1209,782,15353,0
0,213,1756,-1454,-3582,-1307,1212,15218,0
0,214,1192,-3062,-3514,-1449,2340,15117,0
0,215,18,-3304,-3894,-1535,3112,14941,0
0,216,-1028,-3062,-3374,-1396,3336,14695,0
0,217,-1436,-3696,-2534,-1234,3373,14705,0
0,218,-1594,-2760,-2452,-909,2864,14743,0
0,219,-1696,-2900,-2280,-651,1938,14970,0
0,220,-726,-1964,-3156,-283,1362,15316,0
0,221,-612,-1350,-3664,-291,1065,15560,0
0,222,-576,-840,-4586,-364,1301,15957,0
0,223,-148,-22,-5232,-594,2056,16372,0
0,224,-1064,728,-5058,-782,2417,16777,0
0,225,-510,1030,-5116,-552,2038,17324,0
0,226,672,2092,-4782,-653,1464,18030,0
0,227,1574,832,-4990,-1047,993,18737,0
0,228,1284,-762,-5670,-1341,1053,19033,0
0,229,178,-2148,-5140,-1175,1500,19377,0
0,230,-2406,-3350,-4666,-927,1654,19342,0
0,231,-3600,-3326,-5600,18,1199,19265,0
0,232,-3520,-3316,-5842,854,279,19173,0
0,233,-2394,-2564,-5992,1351,-621,18975,0
0,234,-1222,-22,-6120,1467,-1171,18987,0
0,235,-128,636,-7146,996,-1414,19103,0
0,236,540,1030,-6846,743,-1491,19206,0
0,237,1248,890,-6626,574,-1197,19457,0
0,238,1066,660,-7214,343,-1222,19594,0
0,239,1204,-312,-7768,38,-1127,19383,0
0,240,918,-624,-8022,-2,-969,18990,0
0,241,708,-588,-7826,-86,-870,18418,0
0,242,820,-1270,-8298,-119,-934,17866,0
0,243,1248,-566,-7584,-137,-1127,17529,0
0,244,1824,-762,-7354,-350,-988,17280,0
0,245,1664,-518,-6800,-408,-735,17035,0
0,246,1754,-576,-6142,-645,-359,16636,0
0,247,1282,-1016,-6130,-773,-142,16248,0
0,248,1428,-1224,-6084,-723,-30,15906,0
0,249,1360,-1928,-6154,-564,-402,15716,0
0,250,2544,-878,-6004,-691,-735,15293,0
0,251,2760,-1548,-5450,-648,-578,14944,0
0,252,3098,-2310,-5496,-751,-216,14654,0
0,253,2418,-1654,-5000,-817,325,14389,0
0,254,1336,-2474,-4424,-811,832,14110,0
0,255,832,-2022,-4136,-683,946,13791,0
0,256,708,-2286,-3594,-609,568,13668,0
0,257,1902,-924,-3790,-464,282,13567,0
0,258,2298,-738,-3514,-506,237,13426,0
0,259,2658,-368,-3698,-601,404,13436,0
1,260,1846,452,-3328,-897,1112,16268,0
1,261,1936,-208,-3122,-956,1073,16612,0
1,262,2184,590,-3974,-1135,1200,17188,0
1,263,1890,960,-3178,-1369,1238,17548,0
1,264,2104,232,-2856,-1310,988,17778,0
1,265,2938,486,-2960,-1158,634,17967,0
1,266,3944,-216,-3386,-1018,317,17884,0
1,267,4248,-346,-3766,-883,299,17448,0
1,268,4260,-784,-3894,-870,464,17021,0
1,269,2894,-104,-4920,-631,847,16506,0
1,270,1904,278,-4562,-686,1142,16463,0
1,271,506,-566,-3536,-838,1467,16725,0
1,272,-986,-796,-3456,-694,1636,16963,0
1,273,-1952,14,-2566,-483,1008,17215,0
1,274,-2346,474,-1888,119,-137,17616,0
1,275,-972,1714,-2072,40,-1440,18200,0
1,276,606,3040,-3168,316,-2068,18967,0
1,277,2646,4068,-3778,194,-2700,19410,0
1,278,4822,3270,-5024,-85,-3129,19493,0
1,279,6062,3872,-6270,-631,-2713,19293,0
1,280,5860,2254,-6558,-1296,-1446,18993,0
1,281,3784,1076,-5392,-1590,-245,18401,0
1,282,1722,-80,-4804,-1466,210,17847,0
1,283,166,-2068,-3524,-1325,-266,17527,0
1,284,-38,-2668,-3156,-925,-1005,17098,0
1,285,920,-2402,-3778,-709,-1381,16573,0
1,286,1170,-2402,-4020,-669,-1317,16076,0
1,287,1870,-2056,-3640,-774,-948,15660,0
1,288,1416,-2114,-3778,-814,-541,15194,0
1,289,1452,-1282,-3618,-754,-430,14885,0
1,290,1134,-1304,-3214,-907,-329,14632,0
1,291,606,-1558,-2372,-710,-287,14269,0
1,292,392,-1534,-2636,-570,-491,14076,0
1,293,-38,-1662,-2280,-355,-992,14132,0
1,294,628,-888,-2822,-371,-1434,14308,0
1,295,1666,-1086,-3594,-551,-1235,14243,0
1,296,978,-922,-4330,-602,-626,13992,0
1,297,966,556,-4540,-621,113,13708,0
1,298,810,370,-3744,-290,481,13574,0
1,299,1362,1838,-3962,-250,482,13634,0
1,300,2194,2994,-2672,-118,665,13908,0
1,301,2432,4276,-2326,-451,720,14351,0
1,302,2240,5074,-2948,-981,919,14799,0
1,303,1732,4646,-3156,-1358,666,15208,0
1,304,886,4358,-2394,-2171,1248,15650,0
1,305,64,2278,-2060,-2420,1872,15927,0
1,306,-1166,498,-2234,-2282,2619,15906,0
1,307,-2516,360,-1114,-1908,3174,15796,0
1,308,-3228,-622,222,-1468,3119,15668,0
1,309,-2888,-508,-112,-695,2299,16074,0
1,310,-668,362,-30,-733,1250,16222,0
1,311,884,-138,558,-1047,1161,16138,0
1,312,1372,-716,84,-1150,1831,15982,0
1,313,212,-1178,-458,-1273,2094,15758,0
1,314,356,-1190,-1034,-1204,2004,15528,0
1,315,686,-820,-238,-1144,2007,15442,0
1,316,852,-334,-216,-1316,2046,15550,0
1,317,1080,994,-226,-1464,2062,15616,0
1,318,280,24,-204,-1824,2245,15927,0
1,319,42,394,-8,-1879,2223,16269,0
1,320,358,624,280,-1947,2103,16644,0
1,321,336,902,776,-2142,2085,16917,0
1,322,776,984,1008,-2259,2007,17238,0
1,323,526,278,1352,-2227,1610,17271,0
1,324,458,116,938,-2352,1374,17255,0
1,325,-386,-980,1664,-2318,1654,16926,0
1,326,-2270,-1918,1572,-2294,1952,16575,0
1,327,-3928,-2090,2310,-2162,1497,16203,0
1,328,-4456,-2022,3222,-1923,939,16359,0
1,329,-4020,-970,2944,-1771,104,16909,0
1,330,-2834,-56,2886,-1554,-497,17312,0
1,331,-2122,1930,3082,-1422,-602,17578,0
1,332,-1760,3248,2286,-1480,-1051,17851,0
1,333,-512,3548,1284,-1803,-1550,18196,0
1,334,322,3178,1076,-2275,-1271,18428,0
1,335,42,2716,1514,-2654,-648,18281,0
1,336,-70,1330,776,-2903,-502,17851,0
1,337,-274,186,1422,-2765,-433,17284,0
1,338,-342,728,1560,-2793,-541,16753,0
1,339,-48,-1038,1064,-2929,-498,16228,0
1,340,-274,-1246,476,-2998,-211,15712,0
1,341,-520,-1536,938,-2872,179,15256,0
1,342,-916,-1926,1446,-2763,126,14795,0
1,343,-828,-2448,776,-2662,-291,14327,0
1,344,-904,-2784,1502,-2370,-282,13993,0
1,345,-80,-1014,1618,-2058,-448,13939,0
1,346,850,-600,522,-2125,-656,14091,0
1,347,1554,-344,338,-2282,-163,14262,0
1,348,1554,348,246,-2464,756,14389,0
1,349,652,-484,904,-2699,1129,14597,0
1,350,-60,-1662,1318,-2718,968,14856,0
1,351,-940,-2090,1446,-2648,467,14935,0
1,352,-996,-2390,1572,-2334,147,14863,0
1,353,-646,-2484,1204,-2218,260,14663,0
1,354,-328,-1848,396,-1943,565,14370,0
1,355,-230,-738,558,-1801,610,14265,0
1,356,-196,-576,176,-1800,440,14270,0
1,357,-262,-680,396,-2048,574,14553,0
1,358,-626,-764,26,-2371,717,14867,0
1,359,-1188,-1328,500,-2504,975,15123,0
1,360,-974,-1512,304,-2532,1216,15121,0
1,361,-940,-2448,-676,-2390,1491,14927,0
1,362,-634,-2056,-54,-1951,1761,14651,0
1,363,-390,-1548,522,-1769,1735,14431,0
1,364,-148,-1882,-320,-1221,1636,14232,0
1,365,570,-264,108,-1130,1337,14333,0
1,366,988,-1096,280,-1306,1422,14582,0
1,367,402,-680,-412,-1396,1675,14863,0
1,368,366,-542,-250,-1487,1863,15077,0
1,369,142,-1212,662,-1419,1910,15281,0
1,370,-298,-1616,-112,-1205,2152,15264,0
1,371,-1266,-2506,-504,-1319,2427,15295,0
1,372,-1560,-2830,592,-1309,2171,15190,0
1,373,-1774,-4032,500,-1187,1743,15421,0
1,374,-1670,-3408,-618,-777,1202,15891,0
1,375,-826,-2738,-872,-464,739,16131,0
1,376,-196,-2264,-1196,-296,854,16267,0
1,377,402,-554,-1310,-334,1329,16610,0
1,378,718,-322,-1484,-658,1729,16882,0
1,379,52,-404,-1564,-801,1995,17254,0
1,380,356,-438,-1322,-893,1707,17742,0
1,381,268,-1674,-1438,-1223,1113,18356,0
1,382,718,-1074,-1000,-1285,1087,18502,0
1,383,-612,-2276,-1160,-1175,1259,18610,0
1,384,-2112,-2090,-1588,-781,1176,18504,0
1,385,-2890,-1074,-1242,-323,845,18454,0
1,386,-3364,-462,-1484,61,290,18589,0
1,387,-3284,1966,-1242,445,-130,18836,0
1,388,-2358,2254,-1622,409,-749,19303,0
1,389,-622,3204,-1426,-108,-1333,19916,0
1,390,402,2670,-2048,-482,-1332,20068,0
1,391,944,1942,-3110,-1014,-1158,20080,0
1,392,844,486,-3848,-1412,-919,19857,0
1,393,368,-1686,-3732,-1386,-778,19149,0
1,394,-196,-2322,-3824,-1230,-924,18052,0
1,395,-828,-3050,-3594,-809,-1123,16911,0
1,396,-1098,-2126,-3156,-516,-1452,16292,0
1,397,-512,-1132,-4066,-390,-1786,15922,0
1,398,550,-138,-4020,-484,-1956,15753,0
1,399,1712,590,-4562,-973,-1343,15700,0
1,400,1676,740,-3986,-1450,-468,15556,0
1,401,1306,648,-2810,-1618,0,15495,0
1,402,1192,396,-2660,-1558,72,15525,0
1,403,708,-312,-2198,-1397,-31,15442,0
1,404,582,-566,-1530,-1190,-227,15117,0
1,405,524,-348,-608,-1008,-512,14914,0
1,406,932,-566,-734,-911,-755,14712,0
1,407,1586,-218,-988,-870,-775,14377,0
1,408,1630,-588,-354,-685,-420,14188,0
1,409,1552,-496,-100,-756,-173,13981,0
1,410,628,-1028,-434,-617,187,13637,0
1,411,86,-1154,-826,-412,322,13333,0
1,412,-272,-1398,-838,-274,104,13170,0
1,413,64,-992,-526,-192,104,13031,0
1,414,302,416,-504,-222,314,12972,0
1,415,292,1144,-296,-345,541,13010,0
1,416,786,2646,-354,-482,825,13423,0
1,417,720,2312,212,-648,723,13973,0
1,418,922,2854,-584,-857,602,14639,0
1,419,1304,3052,-330,-1080,554,15244,0
1,420,842,2590,222,-1254,727,15561,0
1,421,292,1526,-330,-1566,1323,15808,0
1,422,-82,948,234,-1661,1740,15737,0
1,423,-410,740,1238,-1613,1988,15590,0
1,424,-452,740,880,-1425,1924,15484,0
1,425,62,842,626,-1266,1709,15317,0
1,426,460,1272,1848,-1201,1891,15094,0
1,427,62,1110,2564,-1026,1860,14893,0
1,428,-984,2128,1676,-961,1703,14896,0
1,429,-1446,2358,2760,-1076,1594,14997,0
1,430,-1594,3468,2886,-1092,1581,15449,0
1,431,-816,4646,2564,-1160,1364,16095,0
1,432,-870,4544,2728,-1620,1436,16722,0
1,433,-1614,5454,3716,-2105,1139,17680,0
1,434,-2200,3192,2924,-2691,608,18265,0
1,435,-2594,2750,2540,-2269,615,18726,0
1,436,-2358,1098,2990,-2641,-339,18934,0
1,437,-2010,926,2794,-2289,-183,18912,0
1,438,-2448,890,3036,-2397,-65,18804,0
1,439,-3408,568,3752,-2175,-22,18612,0
1,440,-3746,1920,3360,-2101,-366,18848,0
1,441,-3656,2636,3590,-1987,-617,19433,0
1,442,-3598,4508,3912,-1913,-635,20283,0
1,443,-2496,5050,4028,-2026,-1309,21053,0
1,444,-1164,4934,4512,-2390,-1776,21584,0
1,445,560,3560,3624,-2506,-1789,21441,0
1,446,1284,1734,2632,-2772,-1475,20658,0
1,447,1598,314,2990,-2902,-846,19515,0
1,448,774,-1766,2576,-2934,-530,18455,0
1,449,816,-2322,1642,-2660,-967,17332,0
1,450,1868,-2518,1906,-2454,-1290,16354,0
1,451,2804,-1190,1942,-2605,-878,15412,0
1,452,3164,-1940,1676,-2664,-265,14763,0
1,453,3076,-2146,1710,-2927,223,14357,0
1,454,2490,-2276,2632,-3000,836,14097,0
1,455,2126,-2610,3614,-3105,959,13751,0
1,456,1098,-2924,4052,-2787,918,13387,0
1,457,630,-2784,4328,-2592,570,13280,0
1,458,650,-2922,3810,-2299,157,13369,0
1,459,900,-2830,4086,-2133,-230,13460,0
1,460,976,-2506,3510,-1900,-279,13320,0
1,461,1112,-1628,3186,-1918,-190,13222,0
1,462,968,-2030,3532,-1955,150,13310,0
1,463,494,-2056,3752,-1930,483,13368,0
1,464,-92,-2668,3556,-2156,710,13519,0
1,465,-1388,-3012,3454,-2096,1075,13692,0
1,466,-2498,-3904,3832,-1864,842,13837,0
1,467,-2832,-4494,3590,-1587,96,14130,0
1,468,-2234,-3338,2610,-1385,-561,14262,0
1,469,-1198,-3720,2034,-1106,-957,14313,0
1,470,-4,-1998,788,-843,-714,14341,0
1,471,662,-2772,280,-1028,-71,14257,0
1,472,540,-1986,222,-1075,745,14259,0
1,473,424,-1606,326,-1273,1033,14336,0
1,474,268,-2588,466,-1241,994,14404,0
1,475,176,-2472,154,-1198,779,14577,0
1,476,346,-2298,534,-1063,736,14604,0
1,477,720,-2668,-226,-1037,878,14579,0
1,478,562,-2182,-666,-828,1253,14352,0
1,479,494,-3558,-30,-882,1594,14345,0
1,480,-138,-2576,-422,-863,1833,14274,0
1,481,-410,-3476,-596,-586,2041,14319,0
1,482,-364,-3118,-250,-549,2096,14464,0
1,483,-624,-2738,-642,-226,2232,14730,0
1,484,-782,-2552,-1104,-100,2337,14994,0
1,485,-1096,-1086,-930,292,2315,15199,0
1,486,-1344,-462,-676,598,2232,15554,0
1,487,-960,-160,-1622,589,2213,15994,0
1,488,-782,1144,-1552,484,2172,16749,0
1,489,-578,1654,-1150,331,1924,17496,0
1,490,322,2012,-1852,153,1427,18218,0
1,491,844,1238,-3052,-5,1332,18788,0
1,492,1676,348,-3364,-361,1047,19258,0
1,493,1460,-1200,-3536,-468,1253,19464,0
1,494,108,-1870,-4402,-224,1698,19381,0
1,495,-974,-3292,-3318,272,1976,19267,0
1,496,-1718,-2494,-3086,779,1993,19242,0
1,497,-1354,-1686,-3456,1069,1529,19181,0
1,498,-962,-622,-3502,1442,705,19428,0
1,499,212,624,-3824,1374,-143,19753,0
1,500,876,-104,-3860,675,-355,19966,0
1,501,932,-56,-4528,479,-287,19607,0
1,502,424,-1096,-3928,183,-402,19000,0
1,503,-466,-2032,-3848,196,-743,18463,0
1,504,-1098,-3316,-4620,518,-1037,17842,0
1,505,-1244,-2310,-5324,797,-1619,17281,0
1,506,-298,-334,-5358,913,-1814,17034,0
1,507,512,382,-4494,661,-1763,17114,0
1,508,1148,2046,-4700,220,-1304,17306,0
1,509,1486,2104,-4978,-170,-922,17398,0
1,510,2024,2288,-4552,-459,-833,17295,0
1,511,1824,1214,-4574,-820,-663,17214,0
1,512,1664,994,-4700,-1143,-319,16763,0
1,513,1058,-46,-3882,-1099,59,16373,0
1,514,672,-1178,-2776,-839,25,15833,0
1,515,798,-438,-2430,-632,-375,15499,0
1,516,1204,-1570,-2740,-496,-629,14985,0
1,517,1878,-1490,-3064,-444,-688,14460,0
1,518,2092,-1790,-3122,-498,-558,13799,0
1,519,1934,-1906,-4228,-299,-213,13060,0
2,520,1450,-1558,9874,-1633,2059,16510,0
2,521,582,-2426,10174,-1722,2777,16440,0
2,522,-590,-3396,10798,-1552,2983,16383,0
2,523,-794,-3130,10244,-1080,2628,16105,0
2,524,-330,-3778,10324,-614,2016,15850,0
2,525,762,-2022,9770,-162,1442,16013,0
2,526,1248,-2022,8260,165,1344,16115,0
2,527,1574,-1444,6796,113,1466,16331,0
2,528,1124,-1282,6796,-64,1925,16536,0
2,529,664,-1640,6070,-274,2491,16582,0
2,530,628,-1710,4478,-369,2488,16757,0
2,531,562,-1224,4352,-314,2263,17083,0
2,532,1382,-1328,3948,-296,1793,17526,0
2,533,2364,-2194,3844,-262,1453,17638,0
2,534,2882,-2460,2518,-174,1558,17146,0
2,535,1686,-3604,2494,148,1961,16283,0
2,536,166,-2796,2276,731,2144,15610,0
2,537,-1382,-1860,1560,1033,2164,15455,0
2,538,-1946,-622,1214,1449,2151,15613,0
2,539,-2078,2808,1710,1464,1453,16281,0
2,540,-1108,5374,1434,1348,-108,17788,0
2,541,1878,7004,476,688,-1317,19179,0
2,542,4098,6320,130,-95,-1258,20036,0
2,543,5274,4830,-42,-955,-381,20123,0
2,544,4372,1514,-400,-1428,705,19597,0
2,545,2488,-1502,-296,-1494,1801,18418,0
2,546,198,-3396,662,-910,2090,17035,0
2,547,-1370,-4424,2368,-149,1667,15891,0
2,548,-1660,-3788,2068,22,773,15111,0
2,549,-1492,-3188,2656,1097,406,14760,0
2,550,-838,-450,3278,1290,-81,14952,0
2,551,168,832,2782,1545,-1069,15665,0
2,552,2150,2554,972,1022,-1899,16519,0
2,553,3888,2428,1698,172,-1552,17048,0
2,554,3446,1214,1042,-255,-560,17037,0
2,555,3098,-218,1018,-718,65,16550,0
2,556,1630,-1778,764,-816,850,15788,0
2,557,806,-2346,1364,-561,1200,14958,0
2,558,854,-2634,2390,-99,836,14234,0
2,559,954,-2344,2264,180,407,13611,0
2,560,1394,-2010,2240,91,513,13246,0
2,561,1470,-1050,1596,-182,1199,13062,0
2,562,1380,-672,2286,-401,1749,13091,0
2,563,704,-416,2552,-752,2436,13106,0
2,564,-172,-46,3510,-888,2922,13296,0
2,565,-852,-94,5112,-928,2862,13262,0
2,566,-1300,360,5862,-643,2552,13438,0
2,567,-2110,-600,5296,-520,2032,13835,0
2,568,-2270,590,5850,-333,1509,14170,0
2,569,-2000,428,5942,-133,1062,14558,0
2,570,-1514,544,4974,-59,1022,14924,0
2,571,-940,1006,5054,-66,1328,15075,0
2,572,-872,486,4962,-170,1990,15128,0
2,573,-1120,208,5158,-144,2456,14886,0
2,574,-1730,-672,4790,114,2555,14735,0
2,575,-1752,-126,4536,440,2277,14601,0
2,576,-1708,-288,5574,477,1958,14700,0
2,577,-1334,510,4466,698,2002,14830,0
2,578,-1098,1712,3798,712,1898,15136,0
2,579,-388,2416,4166,597,1814,15442,0
2,580,-16,2808,3602,347,2060,15749,0
2,581,-342,2682,2760,106,2459,15918,0
2,582,-1402,3006,3786,38,2642,16130,0
2,583,-2158,4046,4304,-14,2507,16558,0
2,584,-2282,4496,4086,-116,1923,17244,0
2,585,-1808,4380,3844,-508,1341,18349,0
2,586,-1052,5640,3660,-547,991,19196,0
2,587,-320,4762,3866,-1105,828,20091,0
2,588,-274,3872,3314,-1773,1286,20498,0
2,589,-2168,1942,4432,-1898,2194,20342,0
2,590,-3770,1942,5078,-1674,2174,20071,0
2,591,-4976,1780,4916,-1337,1343,19971,0
2,592,-4940,1734,5170,-911,592,19985,0
2,593,-4672,4218,5482,-901,-222,20159,0
2,594,-4310,5096,6034,-1310,-1314,20625,0
2,595,-3306,5548,5124,-1653,-1790,21023,0
2,596,-2182,4818,4408,-1948,-1889,21088,0
2,597,-1076,3734,5204,-2492,-1606,21008,0
2,598,-1008,1284,4698,-2832,-993,20452,0
2,599,-2022,-854,4028,-2771,-600,19598,0
2,600,-2372,-3292,4098,-2567,-1150,18759,0
2,601,-1176,-3986,3474,-2051,-1980,17532,0
2,602,322,-4044,2334,-1558,-2251,16431,0
2,603,1700,-4724,1054,-1390,-2090,15218,0
2,604,2744,-3986,672,-1280,-1492,14030,0
2,605,2760,-3142,1030,-1401,-813,13144,0
2,606,2556,-3442,-88,-1581,-313,12516,0
2,607,2510,-2714,212,-1787,126,12332,0
2,608,2476,-2010,188,-1897,512,12308,0
2,609,2474,-1616,904,-1750,829,12533,0
2,610,2420,-854,1204,-1634,659,12744,0
2,611,2464,-612,1388,-1635,517,13045,0
2,612,1822,-1120,2056,-1518,813,13202,0
2,613,1212,-750,2138,-1584,871,13457,0
2,614,774,-1304,2264,-1488,887,13583,0
2,615,314,-796,2172,-1413,874,13767,0
2,616,616,-1652,2656,-1244,784,14067,0
2,617,472,-1282,2010,-953,779,14231,0
2,618,416,-1016,2368,-826,891,14311,0
2,619,-196,-2368,2644,-668,982,14320,0
2,620,-502,-1882,1364,-707,1043,14487,0
2,621,-580,-1908,730,-692,1154,14417,0
2,622,-72,-2380,568,-731,1462,14361,0
2,623,-28,-1746,522,-680,1700,14244,0
2,624,874,-1630,4,-629,1637,14409,0
2,625,1722,-1686,500,-629,1597,14457,0
2,626,2050,-2876,1146,-636,1949,14433,0
2,627,1472,-2610,1156,-706,2566,14292,0
2,628,18,-3766,466,-675,2920,14082,0
2,629,-804,-3592,926,-341,2719,13982,0
2,630,-556,-4620,512,-119,2307,13982,0
2,631,118,-4356,-688,150,2195,13944,0
2,632,1418,-2702,-170,371,2389,14126,0
2,633,2050,-1328,-66,209,2659,14357,0
2,634,1960,-1398,-250,132,3231,14634,0
2,635,1438,-1606,-1138,111,3690,15179,0
2,636,514,-912,-746,174,3565,15777,0
2,637,190,-1004,-262,373,3336,16544,0
2,638,86,-46,-538,487,2966,17146,0
2,639,346,-1096,-930,483,2568,17767,0
2,640,784,-290,-1702,307,2280,18225,0
2,641,2182,-600,-2198,108,2091,18482,0
2,642,3040,-1316,-3318,-224,2287,18388,0
2,643,2148,-2762,-2568,-508,3215,18115,0
2,644,-736,-3858,-1692,-358,4117,17772,0
2,645,-3658,-4470,-1830,734,3551,17338,0
2,646,-5596,-4170,-1726,1428,1921,17751,0
2,647,-6328,-1050,-1864,2505,870,18801,0
2,648,-5854,1826,-3686,2923,-411,20028,0
2,649,-2822,4508,-5058,2340,-2145,21533,0
2,650,1404,6056,-5704,1186,-2487,22327,0
2,651,3898,4970,-6200,31,-1419,22160,0
2,652,4278,3616,-6858,-640,154,21427,0
2,653,2498,-114,-4944,-1417,1371,20509,0
2,654,176,-1952,-3974,-1134,1855,19194,0
2,655,-1526,-3258,-3132,-163,1250,17884,0
2,656,-1066,-3270,-2234,288,57,16989,0
2,657,176,-1756,-1668,470,-602,16822,0
2,658,1078,-2032,-908,310,-999,16595,0
2,659,1856,-368,-1218,45,-1003,16465,0
2,660,1654,-1282,-1922,-169,-733,16210,0
2,661,548,-1408,-1058,-314,-292,15859,0
2,662,-534,-2484,-1680,-139,-471,15698,0
2,663,-826,-2738,-1276,248,-917,15444,0
2,664,-94,-2796,-1542,611,-1382,15185,0
2,665,1372,-1420,-1356,1145,-1767,14981,0
2,666,2814,36,-2614,1264,-2139,14891,0
2,667,5012,-970,-3732,700,-1992,14647,0
2,668,5094,-1570,-3802,140,-786,14091,0
2,669,4076,-2148,-3594,-184,318,13594,0
2,670,3074,-1974,-4020,-243,934,12966,0
2,671,2622,-2876,-2936,-145,1234,12566,0
2,672,2182,-1304,-2752,193,1491,12383,0
2,673,2340,-496,-734,347,1685,12315,0
2,674,2310,1088,-1404,400,1634,12409,0
2,675,2554,1928,120,346,1115,12661,0
2,676,2060,2232,408,170,669,13080,0
2,677,1890,2496,258,6,467,13586,0
2,678,1348,2462,-758,-103,529,13891,0
2,679,1250,2404,-504,-149,742,14277,0
2,680,1338,1664,292,-185,1073,14458,0
2,681,1112,1504,4,-201,1575,14298,0
2,682,-174,984,4,-105,2098,13894,0
2,683,-1276,440,880,225,2169,13535,0
2,684,-1696,1018,1030,390,1761,13390,0
2,685,-2066,1746,1272,540,1433,13546,0
2,686,-1716,2532,1664,475,1365,13975,0
2,687,-1278,3444,1376,126,1477,14600,0
2,688,-1312,3110,1342,-88,1707,15183,0
2,689,-1438,2748,442,-250,2053,15735,0
2,690,-1942,3040,662,-286,2181,16139,0
2,691,-2256,3456,1548,-247,2287,16432,0
2,692,-2832,3802,1410,-350,2355,16600,0
2,693,-3440,3988,2230,-481,2491,16990,0
2,694,-3622,4484,1998,-534,2173,17627,0
2,695,-3048,4046,2726,-647,1519,18468,0
2,696,-1648,4138,2010,-682,931,19185,0
2,697,-1290,2924,2148,-842,868,19560,0
2,698,-1232,2762,2126,-1182,1480,19576,0
2,699,-2516,2474,1734,-1349,2107,19276,0
2,700,-3634,2450,1906,-1557,2420,19348,0
2,701,-4210,2208,3014,-1555,2096,19342,0
2,702,-4772,2716,4304,-1201,1906,19337,0
2,703,-4964,4992,5192,-1076,1199,20013,0
2,704,-4346,6076,4028,-1542,21,20892,0
2,705,-2948,6368,4098,-1871,-1146,21439,0
2,706,-1378,4172,3556,-2464,-1265,21419,0
2,707,-252,2820,2876,-3081,-680,20721,0
2,708,-40,588,3106,-3495,117,19432,0
2,709,-400,-1018,3232,-3458,648,18053,0
2,710,-704,-1258,3566,-3362,1131,16972,0
2,711,-1470,-3084,3936,-2855,1259,16395,0
2,712,-896,-2888,3960,-2444,642,15823,0
2,713,230,-3604,4006,-2048,-143,15261,0
2,714,1436,-3618,3174,-2028,-339,14468,0
2,715,1824,-3996,3510,-1927,-42,13495,0
2,716,1980,-4286,3268,-2163,231,12917,0
2,717,2240,-4078,2690,-2164,443,12218,0
2,718,1394,-4852,2206,-2100,983,11829,0
2,719,626,-4148,2518,-1495,1402,11805,0
2,720,470,-3200,2968,-1195,1058,11830,0
2,721,1124,-1478,2610,-838,978,11991,0
2,722,1482,-128,3072,-824,1101,12431,0
2,723,1326,1226,3798,-1213,1185,13035,0
2,724,234,544,3440,-1560,1461,13824,0
2,725,-952,36,3198,-1814,1389,14321,0
2,726,-1390,590,3370,-1929,1114,14670,0
2,727,-1976,-1166,3222,-1762,785,14812,0
2,728,-2202,-1224,3210,-1489,627,14849,0
2,729,-1684,-1928,3082,-1202,507,14688,0
2,730,-1650,-1270,2598,-868,437,14740,0
2,731,-590,-208,1698,-945,183,15025,0
2,732,616,-784,280,-1183,423,15032,0
2,733,806,-2138,960,-1317,1455,14879,0
2,734,414,-2126,972,-1547,2312,14554,0
2,735,-626,-3326,326,-1288,2731,14093,0
2,736,-1652,-3986,800,-905,2898,13734,0
2,737,-1898,-3096,212,-486,2785,13478,0
2,738,-1698,-2426,926,-157,2412,13598,0
2,739,-894,-1778,696,15,2086,14010,0
2,740,-152,-880,142,82,1998,14330,0
2,741,322,-1038,684,-46,2170,14673,0
2,742,-148,-1524,-158,-126,2601,14936,0
2,743,-612,-2102,-100,20,3037,14956,0
2,744,-1718,-1928,-262,192,3234,15013,0
2,745,-1978,-2194,-124,552,3354,14961,0
2,746,-2620,-1466,-330,963,3325,15023,0
2,747,-2550,-1466,476,956,2986,15619,0
2,748,-2372,-68,316,1341,2505,16135,0
2,749,-1368,-218,-400,1229,1970,16731,0
2,750,-1334,-160,-1068,1293,2003,17523,0
2,751,-952,624,-1956,1117,1861,18278,0
2,752,-704,-982,-2902,886,1828,19134,0
2,753,-918,-2680,-3236,619,2212,19502,0
2,754,-1968,-3916,-3282,900,2434,19353,0
2,755,-2698,-4506,-3236,1302,1777,19197,0
2,756,-2970,-4368,-3490,1694,1376,19127,0
2,757,-3386,-3882,-4540,2064,1270,19301,0
2,758,-3488,-612,-4552,2672,550,19982,0
2,759,-1672,2092,-4644,2761,-1482,20982,0
2,760,2196,4346,-5566,2218,-3136,21949,0
2,761,5024,5246,-6270,1351,-2995,22298,0
2,762,5790,5454,-7838,217,-2136,22158,0
2,763,5080,4196,-7342,-577,-1320,21948,0
2,764,4088,2232,-7342,-926,-693,21486,0
2,765,3592,2184,-6466,-918,-784,20886,0
2,766,3796,2242,-5566,-884,-1101,20413,0
2,767,3920,1700,-5370,-981,-909,19975,0
2,768,3334,1572,-5600,-1084,-725,19649,0
2,769,3116,912,-4748,-1348,-623,19122,0
2,770,3286,302,-4678,-1546,-530,18499,0
2,771,3616,-912,-5486,-1711,-191,17664,0
2,772,4336,-2230,-4356,-1817,384,16450,0
2,773,4168,-3280,-3214,-1902,956,15169,0
2,774,3662,-3732,-3098,-1644,1214,13743,0
2,775,3052,-4228,-2522,-1278,1067,12367,0
2,776,2710,-3026,-2706,-491,811,11532,0
2,777,3446,-2380,-2440,-129,83,11530,0
2,778,5202,-1282,-2614,49,-450,11517,0
2,779,6126,-544,-3064,-7,-67,11589,0
3,780,-1120,1896,2576,-554,-455,17094,0
3,781,-254,2240,788,-960,-354,17508,0
3,782,64,1388,270,-1414,-172,17619,0
3,783,244,786,396,-1623,104,17382,0
3,784,334,-22,72,-1900,672,17159,0
3,785,230,-1352,-180,-1859,1258,16774,0
3,786,356,-1640,568,-1757,1328,16484,0
3,787,332,-2416,408,-1462,1080,16093,0
3,788,808,-1548,-284,-1175,749,15698,0
3,789,830,-1894,546,-1100,613,15369,0
3,790,638,-1016,846,-1285,605,15238,0
3,791,-116,-1038,-480,-1570,697,15282,0
3,792,-82,-1616,-712,-1841,782,15193,0
3,793,-588,-784,-180,-1942,824,15112,0
3,794,-522,0,-192,-1876,445,15093,0
3,795,-232,300,280,-1868,-116,15237,0
3,796,-176,440,120,-1869,-332,15651,0
3,797,-82,660,-158,-1730,-524,16033,0
3,798,-140,394,-676,-1921,-779,16271,0
3,799,368,464,-1898,-2026,-695,16399,0
3,800,120,764,-2510,-2257,-461,16264,0
3,801,264,-196,-2198,-2497,-136,16026,0
3,802,594,-692,-3098,-2609,381,15683,0
3,803,-184,-1720,-2326,-2678,1016,15276,0
3,804,74,-1720,-1450,-2477,1052,14937,0
3,805,-118,-2278,-1772,-2199,952,14536,0
3,806,-176,-2068,-2268,-1880,934,14103,0
3,807,-466,-1628,-2256,-1628,793,13975,0
3,808,-546,-472,-2280,-1492,539,14132,0
3,809,200,590,-3132,-1497,391,14320,0
3,810,650,636,-3410,-1725,543,14632,0
3,811,814,1016,-3224,-1786,1038,14926,0
3,812,604,822,-3272,-1778,1280,14955,0
3,813,130,232,-4044,-1924,1553,15079,0
3,814,-352,-462,-3386,-1943,1749,15174,0
3,815,-1232,-670,-2672,-1962,1547,15147,0
3,816,-1256,-554,-3444,-1897,1288,15282,0
3,817,-964,-496,-3524,-1909,1227,15408,0
3,818,76,82,-3306,-1862,1224,15757,0
3,819,1112,360,-3190,-2012,1452,15824,0
3,820,952,-140,-3732,-2101,2139,15732,0
3,821,164,184,-3524,-1978,2146,15605,0
3,822,264,-174,-2648,-2057,2077,15737,0
3,823,-276,-958,-3514,-2104,2176,15851,0
3,824,-680,-1432,-2810,-2000,2133,15903,0
3,825,32,-762,-2694,-1860,1868,15989,0
3,826,818,-1294,-3202,-1859,1776,16021,0
3,827,740,-1294,-3582,-1744,2037,15728,0
3,828,332,-1746,-2372,-1826,2353,15574,0
3,829,-330,-2102,-3190,-1574,2534,15409,0
3,830,-762,-2402,-3224,-1344,2359,15229,0
3,831,-706,-1918,-2960,-1124,2216,15189,0
3,832,-498,-646,-2810,-1028,2019,15221,0
3,833,108,-692,-3594,-992,1991,15369,0
3,834,716,-414,-2464,-1102,2051,15597,0
3,835,662,382,-2590,-1175,1939,16023,0
3,836,930,138,-3168,-1380,2057,16309,0
3,837,426,-46,-3548,-1508,2501,16492,0
3,838,166,-692,-3998,-1581,2512,16469,0
3,839,-174,-1616,-3306,-1706,2587,16453,0
3,840,-364,-1766,-3306,-1811,2685,16453,0
3,841,-658,-1570,-2776,-1798,2559,16473,0
3,842,-750,-1652,-2568,-1695,2014,16396,0
3,843,-838,-1340,-2730,-1476,1535,16342,0
3,844,-412,-1040,-2740,-1228,1287,16205,0
3,845,-784,-706,-2786,-948,1396,16098,0
3,846,-1290,0,-1980,-626,1394,16153,0
3,847,-1482,1928,-2868,-299,1024,16426,0
3,848,-1492,2232,-2338,-215,422,16734,0
3,849,-670,3560,-2418,-303,-297,17069,0
3,850,6,5304,-2706,-823,-324,17540,0
3,851,-520,4392,-3248,-1313,562,18062,0
3,852,-1368,3722,-2234,-1381,673,18434,0
3,853,-1008,1410,-2682,-1282,-237,18576,0
3,854,132,1134,-3214,-886,-1422,18375,0
3,855,954,452,-3410,-794,-1601,18029,0
3,856,1010,-472,-3028,-886,-1362,17615,0
3,857,120,-542,-4458,-855,-1135,17473,0
3,858,-626,-1030,-4194,-617,-1276,17463,0
3,859,-410,-472,-4344,-513,-1502,17648,0
3,860,762,302,-4308,-529,-1536,17773,0
3,861,1170,-254,-4816,-778,-1529,17683,0
3,862,1416,-820,-4574,-840,-1375,17443,0
3,863,1292,-1974,-3986,-935,-1646,17018,0
3,864,964,-2646,-4828,-922,-1646,16482,0
3,865,626,-2416,-4586,-768,-1369,16058,0
3,866,1326,-658,-4436,-774,-1199,15722,0
3,867,1720,48,-4448,-921,-703,15724,0
3,868,1550,-162,-3744,-1249,-173,15940,0
3,869,1778,162,-2314,-1457,-4,16261,0
3,870,1800,-1674,-2360,-1588,-313,16178,0
3,871,1236,-2646,-2602,-1733,-359,15994,0
3,872,222,-2900,-2142,-1909,-206,15579,0
3,873,-412,-3652,-1206,-1625,-252,15162,0
3,874,-748,-2934,-1414,-1697,-448,14825,0
3,875,-456,-2232,-296,-1382,-261,14563,0
3,876,-376,-1824,742,-1269,-339,14541,0
3,877,-410,-1270,1410,-1339,-584,14516,0
3,878,-750,-1260,1260,-1386,-704,14542,0
3,879,-2056,-1386,1538,-1532,-954,14569,0
3,880,-2576,-1654,1330,-1249,-1073,14786,0
3,881,-2956,-1570,730,-1311,-1044,14644,0
3,882,-3034,-1420,1076,-1306,-1025,14597,0
3,883,-2382,-842,1110,-1172,-506,14445,0
3,884,-2488,-94,614,-1184,77,14381,0
3,885,-3284,-992,1376,-1230,502,14378,0
3,886,-3870,336,960,-954,327,14639,0
3,887,-3544,70,522,-629,-746,15246,0
3,888,-1574,1006,-388,-583,-1727,15643,0
3,889,-38,1884,-930,-686,-1599,15754,0
3,890,850,1860,-1438,-936,-868,15553,0
3,891,402,2646,-2014,-1157,18,15432,0
3,892,-344,2034,-2118,-1301,754,15499,0
3,893,-1020,2552,-2152,-1185,937,15389,0
3,894,-208,3248,-2014,-835,467,15357,0
3,895,672,4704,-2164,-749,149,15314,0
3,896,1472,4264,-2164,-837,99,15279,0
3,897,1292,4206,-1680,-1095,362,15342,0
3,898,346,3502,-2660,-1285,666,15324,0
3,899,-1008,994,-2244,-1385,746,15201,0
3,900,-1718,1192,-2810,-1269,765,14946,0
3,901,-1604,660,-2440,-1161,947,14552,0
3,902,-2292,-334,-2856,-1437,1414,14425,0
3,903,-3240,660,-2072,-1519,1782,14548,0
3,904,-3364,948,-1460,-1562,1539,14882,0
3,905,-3408,1768,-1506,-1751,1303,15458,0
3,906,-2902,1850,-1506,-1897,1361,15909,0
3,907,-1998,3998,-826,-1876,1493,16277,0
3,908,-1256,5502,-204,-1860,1532,16981,0
3,909,-648,6298,-66,-2178,1666,17761,0
3,910,378,7198,696,-2308,1546,18992,0
3,911,852,7258,614,-2962,1121,20242,0
3,912,1436,5592,1054,-3787,1143,20898,0
3,913,628,4288,1502,-3952,1193,20984,0
3,914,1158,4380,1376,-3330,387,20458,0
3,915,2792,5432,858,-3101,-697,19621,0
3,916,4754,6426,16,-2825,-753,18522,0
3,917,6230,7592,-562,-2918,-306,17665,0
3,918,6140,8100,62,-3499,758,17495,0
3,919,4978,8320,384,-4151,1481,17676,0
3,920,3986,6402,800,-4503,1313,17743,0
3,921,3570,4750,1676,-4866,935,17712,0
3,922,2902,3108,1814,-4998,874,17293,0
3,923,1800,1954,2564,-4942,521,16528,0
3,924,762,-160,2068,-4850,123,15904,0
3,925,344,-1246,2944,-4634,-272,15239,0
3,926,264,-578,1918,-4301,-371,14867,0
3,927,154,-346,2286,-4241,-512,14492,0
3,928,106,-464,3324,-4182,-741,14403,0
3,929,448,650,2310,-4212,-1157,14423,0
3,930,582,694,1780,-4535,-1557,14581,0
3,931,830,1110,2090,-4957,-1461,14790,0
3,932,368,1306,2184,-5319,-1286,15110,0
3,933,538,776,1652,-5511,-1132,15541,0
3,934,750,484,2748,-5633,-1130,15828,0
3,935,638,36,2852,-5739,-938,15977,0
3,936,434,-728,2944,-5752,-683,15735,0
3,937,-38,-2218,2956,-5575,-598,15213,0
3,938,-16,-2252,2840,-5304,-642,14598,0
3,939,-838,-2622,2414,-5032,-504,14018,0
3,940,-872,-3130,2840,-4771,-169,13659,0
3,941,-1224,-2322,2402,-4590,-76,13598,0
3,942,-1404,-3132,3014,-4389,-17,13541,0
3,943,-1708,-1792,2702,-3915,-367,13873,0
3,944,-1210,-1998,2760,-3611,-1100,14176,0
3,945,142,-982,1422,-3491,-1310,14318,0
3,946,280,-1490,788,-3763,-1094,14201,0
3,947,-128,-774,84,-4114,-542,14271,0
3,948,368,-462,-250,-4281,147,14329,0
3,949,480,-508,408,-4548,521,14555,0
3,950,332,-1134,280,-4540,628,14727,0
3,951,308,-914,430,-4570,816,14873,0
3,952,-196,-1616,960,-4641,963,14970,0
3,953,-500,-2010,776,-4902,743,15059,0
3,954,-568,-1802,512,-4310,757,15158,0
3,955,-444,-680,-342,-4452,543,15235,0
3,956,-26,-1652,280,-4494,617,15255,0
3,957,412,-2634,26,-4523,972,15345,0
3,958,-164,-2494,718,-4542,1442,15368,0
3,959,-828,-3084,1296,-4361,1698,15191,0
3,960,-1720,-3732,800,-4151,1643,14994,0
3,961,-2484,-4228,476,-3996,1333,14766,0
3,962,-1920,-2610,960,-3776,1136,14766,0
3,963,-1120,-2472,-54,-3649,949,14750,0
3,964,74,-1894,-446,-3809,930,14884,0
3,965,638,-1454,-516,-4010,1547,15074,0
3,966,424,-2056,292,-4171,2205,15170,0
3,967,-558,-2554,-42,-4183,2535,15143,0
3,968,-918,-3408,176,-3931,2532,14856,0
3,969,-672,-2576,234,-3567,2338,14474,0
3,970,-682,-3086,-284,-3201,2128,14095,0
3,971,-366,-2832,-642,-2983,1933,14108,0
3,972,-106,-854,-884,-2869,1956,14160,0
3,973,368,-1074,-388,-2898,1976,14192,0
3,974,694,-670,-1830,-2933,2360,14438,0
3,975,752,-622,-792,-3154,2723,14740,0
3,976,318,-590,-458,-3303,3166,15063,0
3,977,-206,-242,-238,-3356,3587,15277,0
3,978,-816,-1120,-792,-3488,3724,15666,0
3,979,-82,-472,-526,-3079,3412,16101,0
3,980,208,-264,280,-3078,3033,16891,0
3,981,1044,-358,50,-3060,2807,17509,0
3,982,1144,-336,-66,-3043,2731,17890,0
3,983,1166,-1202,-20,-3124,2844,18169,0
3,984,-140,-1848,-238,-3093,2999,18292,0
3,985,-626,-2864,-468,-2935,2997,18653,0
3,986,-1110,-3280,200,-2667,2451,19089,0
3,987,-364,-3200,-42,-2456,1790,19336,0
3,988,-446,-2254,-112,-2113,1585,19440,0
3,989,-64,-718,-400,-1869,1019,19514,0
3,990,-40,532,512,-1723,323,19674,0
3,991,1314,810,-884,-1980,3,19801,0
3,992,1822,1446,-1196,-2195,42,19616,0
3,993,1718,1918,-458,-2544,89,19299,0
3,994,1268,1272,-526,-2653,118,19033,0
3,995,1270,-774,-954,-2617,-93,18766,0
3,996,1416,-1790,-654,-2318,-445,18274,0
3,997,1856,-2818,-1104,-1944,-475,17530,0
3,998,2474,-3872,-1218,-1791,-553,16833,0
3,999,2972,-5060,-2084,-1745,-428,15954,0
3,1000,2510,-5568,-1806,-1546,-304,15036,0
3,1001,2250,-6112,-1518,-1492,-315,14240,0
3,1002,1642,-6204,-2106,-1331,-91,13680,0
3,1003,538,-6112,-2406,-789,-25,13300,0
3,1004,-456,-4750,-2730,-393,-447,13254,0
3,1005,-466,-3696,-2464,-36,-838,13605,0
3,1006,-196,-1628,-3086,96,-1220,14247,0
3,1007,942,-900,-3248,-16,-1340,14842,0
3,1008,2340,1376,-2936,-259,-1225,15434,0
3,1009,3376,3294,-3720,-733,-998,15762,0
3,1010,4020,3028,-4182,-1356,-354,15994,0
3,1011,4086,2704,-4066,-1744,446,16066,0
3,1012,3096,2162,-3468,-2131,913,16164,0
3,1013,2260,1246,-2672,-2315,1362,16254,0
3,1014,1282,104,-1922,-2074,1195,16401,0
3,1015,1550,380,-1784,-1738,531,16372,0
3,1016,2418,-510,-1796,-1601,132,16228,0
3,1017,2690,-22,-2452,-1689,482,15996,0
3,1018,2454,-242,-1806,-1754,1139,15516,0
3,1019,2386,-414,-654,-1751,1504,15013,0
3,1020,1518,58,-964,-1623,1821,14617,0
3,1021,1236,-218,-814,-1507,1885,14407,0
3,1022,886,186,-516,-1431,1895,14338,0
3,1023,706,12,-422,-1385,1788,14436,0
3,1024,864,636,-170,-1318,1391,14630,0
3,1025,-4,-820,-458,-1408,1227,14712,0
3,1026,28,-474,-238,-1406,1408,14692,0
3,1027,-356,-474,-804,-1292,1562,14539,0
3,1028,-624,-34,-862,-1328,1704,14381,0
3,1029,-356,174,-400,-1136,1808,14194,0
3,1030,-218,70,188,-1292,1983,14153,0
3,1031,-128,1006,304,-1311,2433,14310,0
3,1032,-726,-450,292,-1528,2970,14539,0
3,1033,-1752,360,72,-1424,2935,14564,0
3,1034,-2372,-104,718,-1248,2282,14882,0
3,1035,-2348,382,222,-921,1728,15138,0
3,1036,-1326,358,26,-890,1551,15262,0
3,1037,-514,1454,-216,-1013,1955,15424,0
3,1038,-986,1536,-412,-1241,2590,15551,0
3,1039,-1426,358,-688,-1483,2976,15779,0
4,1040,-590,718,4236,-815,2101,15117,0
4,1041,-1628,-254,4650,-973,2335,15276,0
4,1042,-1878,-464,5100,-976,2326,15348,0
4,1043,-2304,82,4996,-871,2287,15349,0
4,1044,-2440,-414,4570,-740,2248,15256,0
4,1045,-2396,150,5320,-502,2041,15136,0
4,1046,-2218,-2,5158,-266,1885,15064,0
4,1047,-1752,776,4098,-247,1737,15200,0
4,1048,-2068,706,4996,-292,1909,15335,0
4,1049,-1844,924,4594,-400,2188,15497,0
4,1050,-1988,382,4362,-581,2499,15551,0
4,1051,-2270,-334,4398,-533,2791,15505,0
4,1052,-2442,508,4294,-454,2822,15472,0
4,1053,-2162,-82,4258,-391,2595,15384,0
4,1054,-1900,-36,3844,-320,2343,15345,0
4,1055,-1574,-128,3278,-459,2376,15364,0
4,1056,-1394,612,3382,-591,2774,15247,0
4,1057,-1136,276,3440,-657,3197,15145,0
4,1058,-1380,-322,3118,-599,3408,15081,0
4,1059,-1102,1038,2138,-496,3310,15118,0
4,1060,-1200,394,1988,-359,3322,15121,0
4,1061,-1234,10,2056,-560,3507,15456,0
4,1062,-1728,256,2380,-458,3504,15798,0
4,1063,-1866,1284,3278,-562,2979,16020,0
4,1064,-1640,912,2114,-498,2602,16262,0
4,1065,-1212,530,2286,-656,2500,16428,0
4,1066,-1222,718,2240,-825,2772,16436,0
4,1067,-1988,382,2586,-925,3065,16486,0
4,1068,-2676,382,1998,-823,2953,16565,0
4,1069,-2452,1200,2160,-734,2561,16667,0
4,1070,-2250,2078,2448,-703,2039,16890,0
4,1071,-2046,2368,2010,-841,1808,17200,0
4,1072,-2146,2670,2472,-1250,1858,17753,0
4,1073,-2754,3676,2472,-1814,1882,18393,0
4,1074,-3682,3616,2922,-2202,1640,18969,0
4,1075,-4390,4830,3094,-2369,926,19704,0
4,1076,-4290,5706,3520,-2401,-117,20379,0
4,1077,-3512,5510,3856,-2549,-886,21006,0
4,1078,-2646,5372,3360,-2643,-1608,21123,0
4,1079,-1740,5686,2184,-2749,-1818,20668,0
4,1080,-1088,5188,1792,-2991,-1750,19974,0
4,1081,-1054,4032,1826,-3328,-1190,19378,0
4,1082,-1640,3260,1422,-3594,-282,18936,0
4,1083,-2340,1964,2276,-3587,39,18541,0
4,1084,-2588,-70,2806,-3487,-518,18187,0
4,1085,-1934,-2138,3024,-3424,-909,17150,0
4,1086,-1842,-3950,2782,-3085,-1112,16089,0
4,1087,-1278,-4332,2876,-2791,-1390,14916,0
4,1088,-908,-3710,2022,-2448,-1503,13955,0
4,1089,-298,-2818,1250,-2339,-1295,13290,0
4,1090,-218,-1802,1468,-2145,-1152,13021,0
4,1091,222,-854,1884,-2226,-1193,13026,0
4,1092,602,322,1030,-2403,-1133,13305,0
4,1093,1324,1536,1584,-3116,-918,13882,0
4,1094,1268,1872,2472,-3745,-283,14372,0
4,1095,1098,1570,2334,-4069,62,14637,0
4,1096,380,636,2852,-4199,240,14736,0
4,1097,64,-300,3660,-4141,347,14928,0
4,1098,-570,-972,3498,-3825,196,15025,0
4,1099,-738,-520,3336,-3383,-337,15141,0
4,1100,-502,-2474,4016,-2968,-561,15112,0
4,1101,-274,-2484,3948,-2652,-725,14968,0
4,1102,-106,-3222,3244,-2592,-665,14632,0
4,1103,-300,-3456,2530,-2537,-128,14154,0
4,1104,-398,-3442,2218,-2450,385,13579,0
4,1105,-784,-2890,2702,-2246,620,13257,0
4,1106,-1020,-1802,2530,-1989,662,12963,0
4,1107,-954,-1698,3314,-1728,581,13092,0
4,1108,-290,-902,3706,-1677,463,13478,0
4,1109,162,-532,2922,-1990,293,14487,0
4,1110,40,-820,2794,-2616,445,15406,0
4,1111,164,-1884,2472,-2911,658,15986,0
4,1112,-154,-3582,2772,-3077,758,16088,0
4,1113,-524,-4184,3094,-3071,1023,15840,0
4,1114,-1086,-5084,3014,-2804,1307,15395,0
4,1115,-930,-4542,3440,-2389,1546,14901,0
4,1116,-1100,-5674,3716,-1889,1428,14500,0
4,1117,-1350,-5178,3048,-1492,1173,14188,0
4,1118,-682,-4658,2840,-1053,776,13962,0
4,1119,560,-3292,2828,-710,513,13891,0
4,1120,1718,-2624,2230,-715,945,13887,0
4,1121,1740,-2382,1710,-922,1831,14022,0
4,1122,1156,-1616,1884,-987,2546,14388,0
4,1123,196,-1710,1964,-869,2771,14814,0
4,1124,42,-576,2448,-506,2457,15317,0
4,1125,390,-46,1652,-158,1944,15759,0
4,1126,762,152,2010,18,1688,16100,0
4,1127,-38,544,1204,-61,1509,16523,0
4,1128,-28,1154,38,72,1331,17023,0
4,1129,188,1838,-412,115,1019,17511,0
4,1130,932,2750,-562,375,432,18058,0
4,1131,2790,3708,-2026,292,-106,18440,0
4,1132,4952,4516,-3132,274,-251,18542,0
4,1133,5326,4876,-4574,160,-342,18837,0
4,1134,5010,3742,-5000,-182,-14,19415,0
4,1135,3860,3316,-6638,-410,878,20026,0
4,1136,1990,1674,-6904,-446,1071,20325,0
4,1137,1584,1238,-7088,-659,875,20709,0
4,1138,1630,1816,-7400,-672,504,21037,0
4,1139,3050,2148,-7734,-1072,-127,21125,0
4,1140,4402,1492,-7722,-1473,-218,20835,0
4,1141,4302,532,-7238,-1613,388,19974,0
4,1142,3310,-438,-7122,-1713,575,19323,0
4,1143,1820,-1920,-6108,-1933,303,18594,0
4,1144,198,-2298,-5474,-1663,221,17784,0
4,1145,-1178,-2138,-5704,-1555,62,17179,0
4,1146,-2226,-2278,-5140,-1343,-68,17045,0
4,1147,-2224,-46,-4148,-886,-512,17252,0
4,1148,-772,1178,-5404,-789,-1604,17719,0
4,1149,1776,2382,-6062,-1203,-2550,18134,0
4,1150,3712,3038,-6430,-1744,-2276,18372,0
4,1151,4492,1652,-6812,-2359,-1494,18098,0
4,1152,4232,114,-7688,-2653,-828,17484,0
4,1153,4122,-2240,-7008,-2751,-268,16680,0
4,1154,3736,-3026,-6914,-2653,428,15575,0
4,1155,3186,-3604,-6108,-2252,734,14557,0
4,1156,3004,-4622,-6212,-1821,667,13471,0
4,1157,3466,-2980,-5682,-1471,342,12706,0
4,1158,3522,-2890,-4412,-1288,4,12286,0
4,1159,3942,-2380,-5738,-1395,-313,12026,0
4,1160,4628,-2544,-5738,-1677,-130,11734,0
4,1161,4604,-1804,-4966,-1789,811,11454,0
4,1162,3738,-2114,-5046,-1956,1473,11295,0
4,1163,2780,-2356,-5162,-2032,2050,11242,0
4,1164,1538,-1374,-4182,-1982,2448,11212,0
4,1165,344,-1710,-2084,-1954,2264,11359,0
4,1166,26,-960,-2476,-1898,1700,11472,0
4,1167,72,510,-1726,-1892,1080,11826,0
4,1168,1098,1986,-1968,-2037,534,12451,0
4,1169,1932,2552,-1992,-2274,686,12856,0
4,1170,2048,3120,-1726,-2690,1638,13332,0
4,1171,1178,1986,-758,-3033,2369,13556,0
4,1172,-728,1350,84,-3172,2683,13814,0
4,1173,-1528,1076,638,-3138,2438,13842,0
4,1174,-3030,380,1180,-3032,1791,13792,0
4,1175,-3230,1802,1792,-2831,1105,14058,0
4,1176,-3084,2010,1676,-3033,748,14508,0
4,1177,-3492,3396,1480,-3158,932,15149,0
4,1178,-3500,3788,2276,-3506,1093,15917,0
4,1179,-4120,4216,3370,-3893,981,16604,0
4,1180,-5236,3928,3394,-4200,1042,17221,0
4,1181,-6262,3200,3890,-4242,725,17747,0
4,1182,-6668,3630,4340,-4411,337,18271,0
4,1183,-7174,2000,5412,-4346,244,18787,0
4,1184,-7920,2532,4894,-4233,-3,19005,0
4,1185,-8990,1952,5192,-3888,-432,19299,0
4,1186,-8672,3374,5632,-3622,-972,19855,0
4,1187,-8708,4404,4962,-3438,-1450,20307,0
4,1188,-7952,6610,4282,-3806,-2079,20854,0
4,1189,-6058,7096,4270,-4538,-1978,21152,0
4,1190,-5350,7452,4340,-4735,-1465,20747,0
4,1191,-3622,8308,3670,-5007,-1290,20200,0
4,1192,-1844,7902,3106,-5052,-1207,19567,0
4,1193,128,8816,3394,-5498,-631,19058,0
4,1194,164,6932,4420,-6105,439,18964,0
4,1195,-1088,4842,4040,-6554,1065,19106,0
4,1196,-1936,2656,4466,-6231,493,18673,0
4,1197,-1278,94,4882,-5742,-305,17774,0
4,1198,354,-1192,4444,-5147,-436,16569,0
4,1199,1168,-1732,3578,-4857,-220,15151,0
4,1200,2758,-1628,4304,-4616,31,13841,0
4,1201,3196,-2092,3994,-4547,677,12574,0
4,1202,3490,-2622,3452,-4505,1128,11613,0
4,1203,2768,-1930,5042,-4192,1912,11051,0
4,1204,940,-2486,5954,-3958,2125,11213,0
4,1205,514,-2182,5804,-3765,1513,11372,0
4,1206,82,-2566,6542,-3482,1158,11533,0
4,1207,-558,-1640,6946,-3464,1036,12012,0
4,1208,-954,-1884,6704,-3415,789,12351,0
4,1209,-1462,-2404,6450,-3312,608,12616,0
4,1210,-1496,-2288,6830,-3139,406,12943,0
4,1211,-1212,-1860,5792,-2842,4,13205,0
4,1212,-1112,-1584,5170,-2694,-320,13522,0
4,1213,-942,-994,4962,-2729,-267,14023,0
4,1214,-906,-1154,4628,-2894,-20,14526,0
4,1215,-780,-1294,4132,-2971,404,14953,0
4,1216,-1450,-2254,3474,-2941,496,15345,0
4,1217,-772,-2552,3256,-2864,452,15483,0
4,1218,-426,-3942,3118,-2827,653,15434,0
4,1219,-40,-4646,2310,-2799,1092,15228,0
4,1220,-736,-4886,2460,-2675,1632,14882,0
4,1221,-806,-5108,2968,-2397,1747,14667,0
4,1222,-356,-6886,2472,-2139,1548,14533,0
4,1223,-234,-6322,1618,-1838,1755,14187,0
4,1224,-6,-5790,1446,-1595,2173,13964,0
4,1225,-772,-5802,2252,-1240,2522,13907,0
4,1226,-680,-4320,1802,-994,2521,14251,0
4,1227,-908,-4252,1364,-718,2651,14890,0
4,1228,-694,-3768,1364,-573,2699,15549,0
4,1229,-692,-2472,1446,-376,2430,16202,0
4,1230,-330,-970,476,-198,2031,16768,0
4,1231,1132,-786,-884,-230,1699,17281,0
4,1232,2080,264,-1000,-505,1781,17727,0
4,1233,2610,554,-1218,-766,1884,17924,0
4,1234,2686,1120,-3040,-1159,1986,17988,0
4,1235,2868,-680,-2164,-1554,2362,18210,0
4,1236,1830,-694,-2568,-1682,2889,18631,0
4,1237,308,-2196,-3028,-1707,3304,19067,0
4,1238,-1664,-2518,-3628,-1485,3369,19422,0
4,1239,-2196,-2266,-3698,-1589,2406,19655,0
4,1240,-2442,-290,-2476,-1587,1255,20103,0
4,1241,-1234,2484,-2926,-1583,-544,21028,0
4,1242,380,4392,-3640,-2010,-1483,21939,0
4,1243,3240,4148,-4090,-3368,-2577,22789,0
4,1244,4684,2600,-5036,-4431,-2719,22722,0
4,1245,4842,1166,-5578,-4628,-1824,21837,0
4,1246,2982,-1966,-5624,-4658,-826,20369,0
4,1247,662,-4054,-5058,-4135,-736,19030,0
4,1248,-186,-4484,-4458,-3604,-961,17860,0
4,1249,-884,-4148,-4378,-3031,-1199,17092,0
4,1250,-828,-1928,-4896,-2562,-1614,16867,0
4,1251,-94,-1616,-4678,-2328,-2152,16956,0
4,1252,974,-900,-5612,-1978,-2265,17003,0
4,1253,2238,568,-6200,-1984,-2121,16989,0
4,1254,3198,302,-6280,-2113,-1852,16756,0
4,1255,4028,-636,-6834,-2298,-1131,16261,0
4,1256,3716,-2286,-7630,-2292,-442,15586,0
4,1257,3886,-1548,-7146,-2225,-88,14750,0
4,1258,3908,-2784,-6868,-1912,66,13959,0
4,1259,4458,-2438,-7388,-1730,59,13078,0
4,1260,5010,-2126,-6522,-1558,173,12284,0
4,1261,5012,-2044,-5878,-1453,293,11832,0
4,1262,5338,-1144,-6430,-1583,396,11604,0
4,1263,4672,-1134,-6718,-1839,646,11574,0
4,1264,4314,-1178,-6996,-2024,995,11581,0
4,1265,3948,-186,-5600,-2220,1352,11640,0
4,1266,3962,518,-4990,-2314,1379,11718,0
4,1267,3364,450,-4782,-2333,1283,11839,0
4,1268,3096,1722,-3110,-2244,1229,11979,0
4,1269,3116,2322,-2868,-2382,1100,12264,0
4,1270,2914,2322,-3282,-2495,1150,12526,0
4,1271,2902,3304,-2718,-2734,1368,12837,0
4,1272,2002,2080,-2094,-3017,1649,13150,0
4,1273,1494,1882,-1806,-3204,1812,13576,0
4,1274,492,1468,-296,-3213,1733,13918,0
4,1275,414,1260,-400,-3254,1471,14183,0
4,1276,8,-56,-30,-3293,1528,14256,0
4,1277,-986,-902,418,-3273,1916,14200,0
4,1278,-1864,-450,1156,-3175,2496,13950,0
4,1279,-3124,-634,2472,-2865,2604,13869,0
4,1280,-4220,510,2564,-2736,2217,14087,0
4,1281,-4514,406,3174,-2688,1824,14682,0
4,1282,-4400,2150,3440,-2787,1476,15342,0
4,1283,-4616,2172,2968,-3031,1140,15922,0
4,1284,-4772,2462,2864,-3211,1402,16547,0
4,1285,-4762,2694,3648,-3183,1797,17251,0
4,1286,-5282,2682,3682,-3281,1879,17912,0
4,1287,-5338,1720,3532,-3641,2035,18303,0
4,1288,-6240,1536,3210,-4263,2139,18506,0
4,1289,-6524,2644,2690,-4869,1745,18684,0
4,1290,-6172,4044,2598,-5445,1507,19398,0
4,1291,-5666,6504,2840,-6112,1615,20421,0
4,1292,-4212,7258,3970,-6675,1691,21373,0
4,1293,-2766,8702,4904,-7340,1684,22231,0
4,1294,-1528,8194,4766,-8265,1595,22922,0
4,1295,-612,5916,5366,-8605,1452,22921,0
4,1296,-638,2276,6254,-8736,1595,22128,0
4,1297,-1326,-1224,6484,-8269,1775,20990,0
4,1298,-2168,-3500,5908,-7463,1234,19516,0
4,1299,-1830,-3766,6254,-5975,2,18279,0
5,1300,-558,1258,1964,-1315,2301,16181,0
5,1301,-806,-186,2436,-1364,2207,16406,0
5,1302,-1056,150,2252,-1187,2018,16547,0
5,1303,-456,-394,2286,-1127,1840,16551,0
5,1304,196,264,2276,-1062,1798,16561,0
5,1305,544,80,1596,-1021,1891,16357,0
5,1306,492,360,2080,-986,2164,16062,0
5,1307,42,428,2022,-961,2336,15985,0
5,1308,106,670,1802,-1006,2290,16169,0
5,1309,-164,472,1526,-1144,2319,16442,0
5,1310,172,1454,2148,-1340,2377,16727,0
5,1311,220,1088,2114,-1601,2396,16986,0
5,1312,-514,520,1492,-1786,2528,16975,0
5,1313,-1032,462,1606,-1965,2509,16881,0
5,1314,-1956,530,2610,-1896,2337,16949,0
5,1315,-2498,496,2298,-2034,2206,17109,0
5,1316,-2720,1306,2690,-1862,1856,17212,0
5,1317,-2566,1272,3152,-1569,1252,17574,0
5,1318,-2442,2114,2148,-1534,777,18039,0
5,1319,-2128,2334,2344,-1591,423,18475,0
5,1320,-2010,2450,2252,-2063,53,18945,0
5,1321,-1696,2924,1838,-2450,-63,19145,0
5,1322,-1664,1732,1826,-2830,-245,19188,0
5,1323,-1946,1270,1100,-3043,-395,18910,0
5,1324,-1842,-138,1434,-3094,-525,18306,0
5,1325,-1616,-750,950,-3093,-800,17508,0
5,1326,-1154,-1142,1296,-3104,-1238,16871,0
5,1327,140,-1468,1296,-3110,-1651,16272,0
5,1328,648,-902,1134,-3131,-1494,15933,0
5,1329,1210,-1364,650,-3364,-1378,15368,0
5,1330,1312,-1746,754,-3276,-951,14829,0
5,1331,1426,-2438,1330,-3265,-756,14263,0
5,1332,1124,-2680,926,-3097,-709,13866,0
5,1333,1256,-1952,1272,-3120,-964,13754,0
5,1334,1222,-1238,2218,-3340,-928,13729,0
5,1335,974,-520,1642,-3486,-972,13692,0
5,1336,986,266,1388,-3673,-841,13961,0
5,1337,998,1594,1884,-3892,-558,14347,0
5,1338,490,2078,3960,-4185,-229,15021,0
5,1339,296,3212,3752,-4356,-219,15598,0
5,1340,106,1838,3924,-4187,-520,15958,0
5,1341,-130,1582,4698,-4205,-759,16311,0
5,1342,-366,34,4016,-4151,-677,16507,0
5,1343,-670,-762,3578,-3912,-829,16418,0
5,1344,-482,-1596,3924,-3508,-810,15900,0
5,1345,-28,-2240,3682,-3100,-395,15274,0
5,1346,626,-1768,3256,-2890,115,14691,0
5,1347,208,-1896,3636,-2730,717,14239,0
5,1348,-222,-1352,3762,-2511,1104,14138,0
5,1349,-220,-1006,4190,-2384,1029,14134,0
5,1350,-578,24,4132,-2194,925,14246,0
5,1351,-176,-116,4374,-2200,803,14516,0
5,1352,-76,588,5182,-2271,714,14911,0
5,1353,-218,416,4558,-2406,895,15191,0
5,1354,-276,102,3936,-2483,1105,15494,0
5,1355,-606,-624,4028,-2553,1270,15776,0
5,1356,-1686,-1040,4974,-2462,1116,15842,0
5,1357,-1820,-2044,4408,-2227,881,15848,0
5,1358,-1968,-1652,4258,-1959,598,15721,0
5,1359,-862,-1792,3832,-1717,412,15668,0
5,1360,-852,-1734,3866,-1564,763,15606,0
5,1361,-604,-830,3394,-1358,754,15476,0
5,1362,-626,-1746,2944,-1381,787,15604,0
5,1363,-684,-1006,3198,-1420,1194,15741,0
5,1364,-1020,-1076,2668,-1625,1413,15898,0
5,1365,-1458,-2206,1642,-1630,1494,15989,0
5,1366,-1970,-3178,2472,-1741,1271,16098,0
5,1367,-2520,-4438,2506,-1467,1253,16100,0
5,1368,-2080,-3594,1122,-1090,961,16075,0
5,1369,-1080,-4414,4,-931,814,15778,0
5,1370,-344,-1838,72,-656,1059,15448,0
5,1371,364,-1780,546,-409,1215,15105,0
5,1372,1144,-532,-504,-362,1346,14900,0
5,1373,1550,116,-458,-357,1744,14857,0
5,1374,1268,934,-1242,-366,2038,15084,0
5,1375,874,992,-1104,-308,1800,15204,0
5,1376,1032,1420,-1564,-150,1540,15323,0
5,1377,2010,2438,-2118,-17,1251,15368,0
5,1378,2892,4008,-2256,-89,1105,15377,0
5,1379,3556,4288,-3570,-282,1209,15469,0
5,1380,3918,5556,-4424,-568,1399,15691,0
5,1381,4492,6366,-4562,-998,1759,15768,0
5,1382,3906,5684,-4896,-1420,2208,16130,0
5,1383,2994,5686,-4252,-2137,2768,16636,0
5,1384,1122,3060,-4436,-2696,3207,17050,0
5,1385,-1020,1212,-3468,-2808,3062,17525,0
5,1386,-1842,-992,-2498,-2700,2506,18149,0
5,1387,-2466,-1850,-3606,-2343,1873,18290,0
5,1388,-2780,-2382,-2568,-2060,1162,18156,0
5,1389,-2984,-2080,-2832,-1997,903,18283,0
5,1390,-3252,-2024,-3640,-1746,535,18568,0
5,1391,-2994,-2428,-3986,-1651,-345,18770,0
5,1392,-1066,-1826,-4562,-1598,-1006,18773,0
5,1393,444,-1872,-4170,-1561,-1130,18344,0
5,1394,842,-2680,-5232,-1794,-959,17668,0
5,1395,96,-3814,-5242,-1932,-537,16855,0
5,1396,-886,-3016,-4850,-1297,-356,16352,0
5,1397,-208,-2658,-5278,-1281,-972,16205,0
5,1398,2126,-1028,-5784,-1163,-1455,16256,0
5,1399,3670,-394,-5150,-1737,-1089,16191,0
5,1400,3298,-380,-4794,-2200,36,15893,0
5,1401,2260,-1064,-4850,-2570,691,15936,0
5,1402,444,-2078,-5082,-2553,754,15937,0
5,1403,-556,-1940,-3524,-2137,377,15967,0
5,1404,-512,-1142,-3178,-1865,-141,15998,0
5,1405,264,-844,-3536,-1635,-530,16151,0
5,1406,928,646,-3202,-1580,-834,16151,0
5,1407,1966,1074,-2972,-1897,-1204,16287,0
5,1408,2530,1872,-3514,-2298,-1040,16344,0
5,1409,1754,1110,-3514,-2764,-263,16486,0
5,1410,1458,334,-2948,-3125,410,16348,0
5,1411,422,-868,-2268,-3034,565,15879,0
5,1412,16,-1318,-1404,-2675,250,15466,0
5,1413,-152,-2162,-1414,-2690,143,15078,0
5,1414,-578,-2102,-492,-2263,-94,14824,0
5,1415,-8,-1908,-942,-1969,-632,14741,0
5,1416,50,-1662,-1772,-1658,-983,14688,0
5,1417,298,-1180,-1426,-1508,-924,14540,0
5,1418,716,-174,-1414,-1442,-730,14406,0
5,1419,864,682,-1310,-1355,-352,14216,0
5,1420,1256,588,-1334,-1438,54,14145,0
5,1421,1202,1400,-1564,-1776,483,14414,0
5,1422,648,926,4,-2140,1040,14546,0
5,1423,-606,264,-760,-2253,1220,14723,0
5,1424,-1650,-68,-66,-2121,843,14669,0
5,1425,-1888,-22,200,-1865,304,14742,0
5,1426,-1222,360,-388,-1657,-145,14778,0
5,1427,-358,508,-688,-1564,-366,15154,0
5,1428,784,1998,-838,-1814,-243,15258,0
5,1429,592,1422,-1034,-2032,562,15464,0
5,1430,12,1016,-356,-2311,1192,15663,0
5,1431,-740,692,-66,-2356,1484,15863,0
5,1432,-818,1512,362,-2249,1423,15858,0
5,1433,-198,346,754,-2142,1245,15791,0
5,1434,188,510,-112,-1983,1068,15616,0
5,1435,512,820,222,-1945,937,15424,0
5,1436,502,716,810,-1984,1228,15238,0
5,1437,592,416,546,-1992,1555,15181,0
5,1438,-468,820,72,-1951,1764,15319,0
5,1439,-322,796,822,-2003,1839,15589,0
5,1440,-298,984,810,-2061,1849,15853,0
5,1441,-116,1456,1214,-2179,1767,16041,0
5,1442,-152,716,1296,-2349,1765,16093,0
5,1443,-684,288,1502,-2268,1848,15953,0
5,1444,-1294,1720,1306,-2113,1733,16090,0
5,1445,-1090,1420,1100,-2167,1696,16492,0
5,1446,-1034,2518,1872,-1952,1330,16901,0
5,1447,-682,2600,1814,-2065,1135,17460,0
5,1448,-434,3014,1872,-2340,1253,18009,0
5,1449,-840,2160,662,-2332,1316,18231,0
5,1450,-638,2044,234,-2933,945,18424,0
5,1451,-206,1468,466,-2948,978,18367,0
5,1452,-908,1478,-146,-2956,1094,18334,0
5,1453,-894,602,534,-2944,1047,18287,0
5,1454,-490,1258,1364,-2869,995,18157,0
5,1455,-536,856,1214,-3074,935,17921,0
5,1456,-1054,726,1054,-3248,812,17718,0
5,1457,-524,658,1318,-3033,435,17548,0
5,1458,-1020,-80,1492,-3057,486,17440,0
5,1459,-930,102,1710,-3171,94,17125,0
5,1460,-884,-172,1318,-3247,203,16685,0
5,1461,-1762,1560,1572,-1443,1372,16154,0
5,1462,-2374,2738,1134,-3519,170,16649,0
5,1463,-680,2324,592,-3107,-972,17040,0
5,1464,1244,2702,270,-3063,-996,17165,0
5,1465,2982,1526,892,-3501,-714,17096,0
5,1466,3512,-544,-226,-4275,-239,16442,0
5,1467,2214,-1814,96,-4165,758,15870,0
5,1468,1122,-3084,1226,-4258,1258,15308,0
5,1469,264,-4196,1042,-4010,1134,14760,0
5,1470,288,-4046,1076,-3737,611,14269,0
5,1471,390,-2426,2184,-3150,-80,13872,0
5,1472,1438,-1860,1906,-3509,-462,13826,0
5,1473,1290,-162,1768,-3853,-272,13809,0
5,1474,974,-924,1780,-4188,372,14015,0
5,1475,194,-510,2148,-4334,783,14123,0
5,1476,-424,-256,2310,-4236,932,14210,0
5,1477,-852,-1352,1930,-4130,717,14355,0
5,1478,-364,-842,2218,-3767,215,14560,0
5,1479,-28,-1192,3510,-3709,-147,14619,0
5,1480,-118,-808,2530,-3317,219,14668,0
5,1481,-468,-1514,2240,-3478,934,14554,0
5,1482,-1054,-948,2818,-3474,1184,14385,0
5,1483,-1700,-2288,3106,-3618,1262,14537,0
5,1484,-1902,-2520,2068,-3318,1139,14585,0
5,1485,-1596,-2808,2380,-3012,1022,14630,0
5,1486,-1270,-2440,3498,-2634,969,14666,0
5,1487,-1064,-1606,2806,-2314,944,14713,0
5,1488,-906,-612,2632,-2019,878,14804,0
5,1489,-706,-510,2518,-2229,786,15094,0
5,1490,-716,-314,1976,-2334,873,15383,0
5,1491,-550,-718,1156,-2559,1096,15573,0
5,1492,-344,-1086,2230,-2362,1602,15833,0
5,1493,-1212,-2312,1826,-2578,1949,15673,0
5,1494,-1866,-2994,1642,-2155,1801,15714,0
5,1495,-2124,-2772,1538,-1867,1445,15660,0
5,1496,-2092,-3282,2114,-1678,1074,15486,0
5,1497,-964,-2878,684,-1485,470,15444,0
5,1498,546,-2648,362,-1443,446,15313,0
5,1499,1098,-1896,130,-1155,1108,15014,0
5,1500,860,-2080,-112,-1387,1932,14891,0
5,1501,96,-2150,-1218,-1247,2405,14756,0
5,1502,-604,-1422,-1010,-1003,2340,14772,0
5,1503,-356,-958,-342,-1000,2037,15006,0
5,1504,456,92,-884,-923,1809,15365,0
5,1505,1280,-508,-1138,-1165,1850,15678,0
5,1506,1310,-2,-804,-1420,2298,16074,0
5,1507,750,-314,-1518,-1818,2922,16363,0
5,1508,-186,-1514,-1288,-2060,3246,16608,0
5,1509,-998,-1550,-862,-2071,3187,16808,0
5,1510,-1142,-2380,-746,-1787,2617,16894,0
5,1511,-1562,-2358,-1404,-1689,1998,17110,0
5,1512,-130,-1330,-1104,-1156,1154,17113,0
5,1513,1258,-1454,-1956,-1172,869,17050,0
5,1514,2124,-718,-2094,-1278,1243,16770,0
5,1515,1966,-694,-2210,-1454,1993,16475,0
5,1516,1290,-972,-1542,-1595,2525,16323,0
5,1517,-672,-1052,-1784,-1686,2475,16429,0
5,1518,-1640,-1166,-2152,-1318,1776,16601,0
5,1519,-1548,-1328,-2452,-1025,879,17088,0
5,1520,-1664,-946,-2314,-552,314,17293,0
5,1521,-1674,-672,-3766,-574,-78,17374,0
5,1522,-1314,116,-3456,-238,-169,17499,0
5,1523,-1124,1200,-3328,-618,-228,17893,0
5,1524,-738,2460,-3674,-797,-432,18416,0
5,1525,634,2218,-4170,-1068,-1018,18754,0
5,1526,2284,2288,-4470,-1136,-1108,18690,0
5,1527,2586,46,-4240,-1553,-701,18322,0
5,1528,2248,-498,-4552,-1736,-26,17687,0
5,1529,612,-3536,-3664,-1873,380,17035,0
5,1530,-840,-3190,-3582,-1276,316,16387,0
5,1531,-514,-3178,-3398,-589,-594,15883,0
5,1532,-62,-2448,-4066,-426,-1221,15742,0
5,1533,828,-738,-3478,-370,-1236,15873,0
5,1534,838,-174,-3098,-341,-1237,15917,0
5,1535,1130,310,-4112,-517,-1362,16115,0
5,1536,1278,496,-3720,-931,-1028,16380,0
5,1537,964,1156,-3018,-1371,-565,16600,0
5,1538,806,542,-3456,-1633,-244,16652,0
5,1539,648,-486,-2868,-1613,-199,16543,0
5,1540,940,820,-2994,-1556,-607,16470,0
5,1541,1234,264,-2326,-1523,-586,16328,0
5,1542,1280,474,-2106,-1635,-373,16160,0
5,1543,660,-590,-1356,-1792,267,15890,0
5,1544,94,-880,-850,-1975,569,15628,0
5,1545,-806,-1432,-226,-1847,415,15289,0
5,1546,-1012,-2336,-758,-1506,-30,14963,0
5,1547,-344,-1722,-216,-1209,-428,14666,0
5,1548,16,-1896,166,-950,-446,14434,0
5,1549,454,-128,-216,-980,-334,14264,0
5,1550,614,-542,316,-950,-24,14295,0
5,1551,104,634,730,-1010,334,14384,0
5,1552,-482,-210,258,-1010,280,14525,0
5,1553,-400,1340,-76,-878,-30,14727,0
5,1554,-142,1548,-88,-924,-372,14983,0
5,1555,398,1294,-204,-982,-415,15275,0
5,1556,422,2136,62,-1231,-61,15538,0
5,1557,296,2390,62,-1501,526,15791,0
5,1558,-40,1870,292,-1832,1002,15855,0
5,1559,-310,1582,430,-1857,1141,15924,0
6,1560,412,-3572,764,-1900,410,13310,0
6,1561,704,-2426,1710,-1950,192,13274,0
6,1562,772,-1260,546,-1908,14,13379,0
6,1563,1144,1134,1296,-2074,39,13770,0
6,1564,840,2714,1514,-2529,437,14284,0
6,1565,220,2286,2044,-3072,1009,14934,0
6,1566,-646,2150,2494,-3213,1034,15709,0
6,1567,-738,2610,3140,-3185,184,16430,0
6,1568,94,1778,3302,-3010,-669,17037,0
6,1569,704,934,2552,-2991,-800,17172,0
6,1570,692,-48,2622,-2986,-388,17031,0
6,1571,242,-1630,2344,-3032,130,16688,0
6,1572,-468,-3374,2090,-2919,762,16045,0
6,1573,-1248,-4784,2436,-2553,943,15219,0
6,1574,-1044,-4010,2286,-1991,819,14370,0
6,1575,-108,-3144,1930,-1420,805,13724,0
6,1576,310,-2080,2148,-1232,696,13533,0
6,1577,1074,-1526,2460,-1255,940,13513,0
6,1578,702,-672,2126,-1500,1533,13724,0
6,1579,72,-672,2080,-1705,1672,14031,0
6,1580,-852,-2174,1146,-1835,1482,14322,0
6,1581,-852,-1030,1226,-1772,1386,14370,0
6,1582,-862,-1884,2286,-1723,1564,14399,0
6,1583,-918,-1536,1596,-1520,1648,14338,0
6,1584,-606,-1872,2008,-1339,1465,14536,0
6,1585,220,-578,2472,-1166,1366,14704,0
6,1586,82,-1352,1538,-1172,1525,14847,0
6,1587,-84,-1664,754,-1277,1725,14919,0
6,1588,-346,-1456,512,-1317,1883,14984,0
6,1589,-548,-1836,810,-1395,1967,15108,0
6,1590,-380,-1758,1018,-1314,2119,15418,0
6,1591,-332,-2012,926,-1325,2172,15880,0
6,1592,-132,-2370,546,-1372,2312,16224,0
6,1593,164,-3168,742,-1411,2553,16381,0
6,1594,-762,-3248,-158,-1337,2794,16363,0
6,1595,-1136,-3734,418,-1075,2665,16112,0
6,1596,-1268,-4320,626,-620,2337,16069,0
6,1597,-888,-2960,-238,-42,1930,16082,0
6,1598,466,-1260,-492,421,1034,16269,0
6,1599,1652,-900,-630,394,619,16676,0
6,1600,2396,438,-1242,186,854,17146,0
6,1601,1708,-602,-2406,-297,1572,17718,0
6,1602,26,-140,-2590,-469,2048,18063,0
6,1603,-1912,-94,-2142,-139,1962,18453,0
6,1604,-2906,1512,-2440,580,1396,19201,0
6,1605,-2654,4126,-2418,1046,316,20289,0
6,1606,-740,4516,-2372,536,-1325,21245,0
6,1607,660,5060,-3340,-74,-1905,21585,0
6,1608,2688,4796,-4182,-142,-2332,21117,0
6,1609,3442,3476,-4896,-724,-2004,20468,0
6,1610,2812,1836,-5970,-1269,-957,19609,0
6,1611,1900,-186,-6130,-1265,206,18616,0
6,1612,612,-1364,-5924,-1007,724,17848,0
6,1613,-52,-2888,-4494,-1076,507,17244,0
6,1614,-256,-3548,-4828,-507,-56,16613,0
6,1615,332,-2336,-4562,-12,-497,15930,0
6,1616,96,-1802,-4298,-26,-810,15688,0
6,1617,-186,-1376,-4782,-76,-680,15767,0
6,1618,-132,-544,-4758,-79,-1145,15953,0
6,1619,838,346,-5024,-105,-1414,16080,0
6,1620,1304,1018,-5208,-312,-1077,16252,0
6,1621,1684,1466,-5370,-645,-739,16395,0
6,1622,1876,2032,-4378,-789,-856,16619,0
6,1623,2958,1712,-4552,-1090,-1559,16823,0
6,1624,3500,762,-4148,-1369,-1753,16749,0
6,1625,3576,-568,-4170,-1796,-1178,16284,0
6,1626,2430,-1722,-4170,-2156,-601,15637,0
6,1627,1166,-3526,-3906,-2129,-211,14762,0
6,1628,366,-3918,-3064,-1810,-225,14006,0
6,1629,524,-3282,-2730,-1338,-553,13417,0
6,1630,826,-2994,-2430,-800,-949,13341,0
6,1631,1434,-868,-2694,-562,-1278,13425,0
6,1632,2700,774,-2994,-699,-1728,13580,0
6,1633,3432,1444,-1944,-1227,-1169,14016,0
6,1634,2878,1814,-1518,-1942,-586,14413,0
6,1635,2248,428,-1806,-2429,-207,14734,0
6,1636,2236,-232,-1172,-2551,263,14848,0
6,1637,916,-1630,-434,-2768,828,14705,0
6,1638,-456,-2924,-8,-2358,944,14149,0
6,1639,-874,-2612,292,-1816,275,13550,0
6,1640,-1168,-2636,200,-1574,-103,13226,0
6,1641,-514,-2012,-376,-1421,-95,13034,0
6,1642,-60,-1454,142,-1354,501,12996,0
6,1643,510,-624,476,-1523,1021,13099,0
6,1644,208,-128,466,-1400,2020,13244,0
6,1645,-988,-12,-42,-1660,2682,13386,0
6,1646,-1888,544,1018,-1410,2848,13663,0
6,1647,-2766,498,1630,-1474,2481,13998,0
6,1648,-2666,1420,1376,-1264,1950,14357,0
6,1649,-2532,2252,1964,-1213,1616,14774,0
6,1650,-2464,3950,2286,-1316,1556,15447,0
6,1651,-2206,4922,1650,-1388,1546,16225,0
6,1652,-2644,5268,1768,-1587,1687,16881,0
6,1653,-2878,5860,2218,-1758,1782,17623,0
6,1654,-3458,5002,2530,-1973,1933,18502,0
6,1655,-4460,4032,1838,-2074,1379,19241,0
6,1656,-4390,3676,2080,-1907,691,19779,0
6,1657,-3390,3396,1930,-1923,319,20021,0
6,1658,-2364,2402,960,-2145,247,19978,0
6,1659,-2576,2484,1318,-2007,612,19418,0
6,1660,-2904,2716,2080,-2335,553,18916,0
6,1661,-3176,3292,2148,-2499,12,18458,0
6,1662,-2782,3466,1826,-2176,-345,18225,0
6,1663,-2354,5338,2574,-2191,-507,18504,0
6,1664,-1418,6180,3164,-2490,-655,18951,0
6,1665,-514,6262,2414,-2745,-729,19347,0
6,1666,568,5730,2402,-3285,-814,19378,0
6,1667,1074,2542,3520,-3766,-373,19020,0
6,1668,308,462,2530,-4052,224,18262,0
6,1669,-1044,-1676,3268,-3903,477,17443,0
6,1670,-1866,-3110,3960,-3693,435,16487,0
6,1671,-2260,-3352,4202,-2992,116,15771,0
6,1672,-1632,-2590,3694,-2465,-591,15311,0
6,1673,-556,-1004,4490,-2168,-1167,15029,0
6,1674,-242,588,4628,-2315,-1193,15147,0
6,1675,454,1420,3614,-2733,-1289,15854,0
6,1676,1034,1862,3866,-3326,-1778,16543,0
6,1677,2248,726,4062,-3392,-2122,16617,0
6,1678,2844,-752,2884,-3605,-1814,16217,0
6,1679,2790,-2196,2668,-3539,-1143,15572,0
6,1680,1460,-3572,2932,-3627,-357,14826,0
6,1681,680,-4472,2876,-3294,278,14063,0
6,1682,-84,-5490,2518,-2841,459,13184,0
6,1683,-74,-5130,2840,-2315,434,12726,0
6,1684,94,-4576,3660,-2035,222,12573,0
6,1685,366,-4022,3164,-1665,-122,12652,0
6,1686,806,-2416,3014,-1450,-334,12665,0
6,1687,996,-1954,3198,-1385,-421,12895,0
6,1688,288,-1920,2564,-1698,47,13137,0
6,1689,-164,-1318,2436,-1656,511,13430,0
6,1690,-276,-198,2138,-1790,606,13669,0
6,1691,-18,68,2148,-1849,804,13913,0
6,1692,-580,-314,2402,-1806,834,14211,0
6,1693,-818,634,1502,-1751,662,14376,0
6,1694,-1012,-278,1342,-1657,168,14838,0
6,1695,-60,94,914,-1599,-289,15359,0
6,1696,680,-1238,512,-1802,-58,15686,0
6,1697,726,-2300,580,-2041,750,15600,0
6,1698,298,-2636,592,-2107,1508,15383,0
6,1699,-392,-3560,338,-1923,1793,15045,0
6,1700,-920,-3780,176,-1581,1687,14659,0
6,1701,-670,-3766,212,-1091,1544,14187,0
6,1702,-978,-3572,-446,-683,1606,13894,0
6,1703,-728,-2136,-446,-601,1757,13944,0
6,1704,-942,-1896,-158,-359,1732,14058,0
6,1705,308,-624,-956,-618,1855,14440,0
6,1706,28,-948,-1334,-817,2468,14974,0
6,1707,152,-348,-964,-1038,2897,15471,0
6,1708,-366,206,-1288,-1140,2947,15915,0
6,1709,-390,-160,-1714,-1151,2877,16453,0
6,1710,-490,-752,-1404,-1229,2809,16765,0
6,1711,-694,-210,-1242,-1208,2658,17218,0
6,1712,-930,-498,-1956,-1352,2249,17585,0
6,1713,16,-520,-1748,-1202,1759,17965,0
6,1714,602,-1306,-1542,-1616,1624,18085,0
6,1715,-662,-1226,-1944,-1539,1907,17937,0
6,1716,-2102,-1156,-1796,-1303,1716,17895,0
6,1717,-2802,900,-1460,-664,1222,18179,0
6,1718,-3230,3176,-1760,-262,685,19376,0
6,1719,-2162,5522,-1830,-550,-433,20761,0
6,1720,-706,6492,-1956,-1188,-1753,22244,0
6,1721,1988,6226,-2868,-1776,-2618,22941,0
6,1722,4526,5706,-4262,-2213,-2967,22773,0
6,1723,5594,2068,-5150,-2865,-1889,21934,0
6,1724,3678,-440,-5162,-3307,-95,20838,0
6,1725,750,-3040,-4504,-3147,429,19426,0
6,1726,-130,-4670,-4274,-1962,-454,18204,0
6,1727,444,-4808,-3420,-1214,-1549,17270,0
6,1728,592,-3860,-2626,-654,-1773,16828,0
6,1729,952,-1930,-3156,-242,-1936,16768,0
6,1730,1922,-518,-4056,-215,-2473,16832,0
6,1731,3374,992,-4252,-462,-2729,16936,0
6,1732,4062,1386,-4148,-1128,-2534,16896,0
6,1733,4344,1686,-4932,-1584,-1749,16705,0
6,1734,3284,1038,-4228,-2101,-816,16438,0
6,1735,2520,10,-2936,-1915,-276,15890,0
6,1736,2158,-1202,-3202,-1669,-399,15550,0
6,1737,2790,-1296,-3548,-1357,-878,14990,0
6,1738,3646,-232,-3272,-1099,-1046,14624,0
6,1739,3882,-1052,-2994,-964,-967,14082,0
6,1740,3974,-694,-3006,-1013,-837,13672,0
6,1741,3974,-948,-3052,-1050,-553,13349,0
6,1742,3644,-994,-3076,-1212,-47,13029,0
6,1743,3002,-1180,-2914,-1262,267,12758,0
6,1744,2574,-1330,-2464,-1254,477,12547,0
6,1745,2542,92,-2210,-1113,579,12301,0
6,1746,1998,230,-1968,-1105,584,12492,0
6,1747,1506,348,-2418,-1108,303,12657,0
6,1748,1018,842,-2198,-1223,83,13010,0
6,1749,1292,1134,-1206,-1392,268,13275,0
6,1750,940,1108,-1530,-1685,720,13419,0
6,1751,490,692,-2038,-1913,1191,13553,0
6,1752,28,934,-1254,-1839,1395,13639,0
6,1753,-526,1662,-758,-1632,1107,13877,0
6,1754,354,878,-1080,-1430,513,14071,0
6,1755,592,322,-654,-1509,571,13953,0
6,1756,420,346,-872,-1601,1121,13854,0
6,1757,-740,912,-988,-1734,1307,13865,0
6,1758,-1034,934,-1196,-2008,1629,13918,0
6,1759,-1382,1838,-422,-2201,1989,14008,0
6,1760,-2342,1236,-330,-2393,2305,14013,0
6,1761,-2788,1642,316,-2270,2180,14345,0
6,1762,-3006,2252,810,-2236,1810,14637,0
6,1763,-2698,3282,1446,-2057,1443,15118,0
6,1764,-2554,4182,730,-2411,1496,15549,0
6,1765,-3602,3824,834,-2710,1963,16093,0
6,1766,-4932,4054,1342,-3074,2205,16642,0
6,1767,-5192,3720,1422,-3077,1969,17346,0
6,1768,-5136,3950,1030,-3156,1338,18141,0
6,1769,-3762,3326,1352,-3458,722,18733,0
6,1770,-3232,3372,1838,-3700,680,18933,0
6,1771,-4268,3108,1376,-4404,905,19030,0
6,1772,-6488,1408,1630,-4358,922,19206,0
6,1773,-7144,2796,2380,-4030,685,19660,0
6,1774,-7054,3154,2286,-4184,149,20344,0
6,1775,-6196,3846,2034,-4011,-452,20853,0
6,1776,-5520,3546,3140,-4500,-928,21281,0
6,1777,-4854,2622,3072,-4967,-950,21518,0
6,1778,-4260,1478,1996,-5158,-695,21287,0
6,1779,-3230,-810,2310,-4917,-640,20405,0
6,1780,-2160,-1444,2160,-4748,-280,19263,0
6,1781,-2160,-4866,2748,-4486,122,18148,0
6,1782,-2116,-5536,2632,-3756,-250,16878,0
6,1783,-956,-4426,2334,-3015,-1037,16051,0
6,1784,920,-4736,1826,-2637,-1478,15018,0
6,1785,1706,-3410,1802,-2652,-1272,14286,0
6,1786,1618,-2702,1446,-2779,-1122,14035,0
6,1787,2100,-2496,972,-3151,-1133,13893,0
6,1788,2076,-2566,428,-3217,-970,13719,0
6,1789,2294,-3006,-8,-3429,-591,13518,0
6,1790,2158,-3016,742,-3334,-207,13250,0
6,1791,1180,-2402,1192,-3266,245,13149,0
6,1792,84,-2116,1100,-3155,494,13230,0
6,1793,-132,-1480,1664,-2622,-132,13609,0
6,1794,520,-232,2516,-2583,-950,14093,0
6,1795,1976,114,1456,-2474,-1547,14654,0
6,1796,2518,-810,154,-2968,-1372,14924,0
6,1797,2394,-1712,316,-3274,-321,14802,0
6,1798,806,-2774,614,-3375,630,14536,0
6,1799,-346,-3040,-180,-3117,678,14234,0
6,1800,-570,-4044,1168,-2729,343,13909,0
6,1801,410,-2682,1260,-2428,164,13512,0
6,1802,566,-1272,984,-2195,189,13311,0
6,1803,1020,-1040,500,-2318,135,13408,0
6,1804,1370,-218,304,-2442,250,13659,0
6,1805,1378,-926,464,-2701,539,14060,0
6,1806,1130,-1410,-124,-3012,1176,14227,0
6,1807,546,-1712,476,-2957,1559,14417,0
6,1808,40,-2924,1272,-2714,1583,14377,0
6,1809,-6,-3028,1088,-2367,1505,14291,0
6,1810,-198,-3028,1260,-2209,1505,14033,0
6,1811,-132,-2508,1492,-1892,1531,13766,0
6,1812,-78,-2638,774,-1799,1437,13821,0
6,1813,816,-2310,418,-1536,1060,14248,0
6,1814,1378,-1862,188,-1663,1015,14600,0
6,1815,1222,-1596,142,-1627,1790,14756,0
6,1816,-264,-2414,-516,-1792,2362,14774,0
6,1817,-1258,-1734,26,-1752,2458,14937,0
6,1818,-1484,-2034,904,-1421,2230,15230,0
6,1819,-1482,-1296,-112,-1236,1854,15483,0
7,1820,-796,-994,-2982,-2728,2093,14804,0
7,1821,-560,-798,-2348,-2740,2031,14950,0
7,1822,-862,-672,-2522,-2770,1938,15233,0
7,1823,-278,-370,-2452,-2916,1960,15658,0
7,1824,116,-174,-2060,-3008,2138,16059,0
7,1825,130,-764,-1138,-3097,2330,16371,0
7,1826,194,-416,-1610,-2959,2296,16589,0
7,1827,160,-2220,-1348,-2839,2119,16630,0
7,1828,-132,-1400,-954,-2553,2108,16454,0
7,1829,-490,-1826,-964,-2371,2198,16328,0
7,1830,-854,-1364,-1622,-2189,2192,16378,0
7,1831,16,-220,-1010,-2098,2071,16755,0
7,1832,386,-152,-782,-2224,1842,17408,0
7,1833,636,-520,-1126,-2597,1744,18040,0
7,1834,288,-1364,-1022,-2977,1838,18394,0
7,1835,-346,-2866,-112,-2953,1856,18419,0
7,1836,-1576,-3630,-1126,-2485,1669,18098,0
7,1837,-2692,-3594,-1010,-1725,1279,17731,0
7,1838,-2748,-2694,-286,-901,582,17739,0
7,1839,-2376,-1572,-930,-652,147,18003,0
7,1840,-1926,184,-1486,-116,-560,18366,0
7,1841,194,2322,-3340,-344,-1484,19136,0
7,1842,2146,3130,-3432,-968,-1549,19993,0
7,1843,3520,3800,-4390,-1259,-1378,20220,0
7,1844,5246,2680,-4818,-1911,-945,20096,0
7,1845,4684,-370,-5232,-2274,-116,19267,0
7,1846,3036,-3144,-5404,-2329,502,18291,0
7,1847,1494,-4310,-4540,-1679,146,16995,0
7,1848,848,-4184,-4632,-793,-751,16044,0
7,1849,1920,-2856,-4666,-559,-1200,15501,0
7,1850,2484,-2242,-4690,-772,-883,15263,0
7,1851,2234,-1030,-3192,-837,-742,15251,0
7,1852,1840,-798,-3884,-825,-896,15421,0
7,1853,1568,-278,-3700,-841,-1139,15555,0
7,1854,972,1038,-2636,-718,-1302,15722,0
7,1855,1140,1398,-2190,-587,-1772,16069,0
7,1856,2078,3396,-3364,-544,-2642,16592,0
7,1857,3680,3280,-2880,-1081,-3063,17296,0
7,1858,4470,2760,-3606,-1868,-2540,17522,0
7,1859,5032,1096,-4216,-2170,-1750,17088,0
7,1860,4444,-868,-4562,-2701,-822,16392,0
7,1861,2844,-2994,-3076,-2965,471,15269,0
7,1862,308,-4726,-2152,-2298,1083,14016,0
7,1863,-1032,-4634,-2406,-1350,417,13135,0
7,1864,-1328,-3630,-1484,-668,-478,12807,0
7,1865,104,-2220,-1656,-271,-1064,12987,0
7,1866,1424,392,-2372,-102,-1490,13335,0
7,1867,3148,1882,-2464,-584,-1370,13760,0
7,1868,3520,1998,-1944,-1429,-334,14165,0
7,1869,2382,1512,-2348,-2154,794,14311,0
7,1870,364,426,-2234,-2285,1195,14468,0
7,1871,-358,-672,-1346,-2084,941,14534,0
7,1872,-674,-682,-1368,-1708,553,14573,0
7,1873,70,46,-1944,-1522,59,14555,0
7,1874,882,1108,-1726,-1548,36,14640,0
7,1875,1694,276,-1254,-1724,334,14744,0
7,1876,1220,-232,-1970,-2124,966,14575,0
7,1877,692,-1018,-1922,-2174,1744,14243,0
7,1878,-210,-1202,-852,-1998,1926,13858,0
7,1879,-594,-556,-988,-1671,1873,13676,0
7,1880,-220,-256,-272,-1419,1834,13643,0
7,1881,-244,680,270,-1554,1955,13911,0
7,1882,-356,2264,130,-1362,1774,14184,0
7,1883,-76,2564,280,-1562,1446,14566,0
7,1884,70,3164,534,-2117,1958,15009,0
7,1885,-550,3950,534,-2661,2578,15730,0
7,1886,-1440,3430,1306,-3175,3304,16047,0
7,1887,-2756,4136,2772,-2992,3397,16373,0
7,1888,-4022,3662,3370,-3305,2823,16967,0
7,1889,-3886,3940,2898,-3203,1491,17604,0
7,1890,-2748,3454,3082,-3697,478,18328,0
7,1891,-2398,3396,4096,-3836,511,18852,0
7,1892,-2726,2032,2642,-4193,782,19019,0
7,1893,-4080,554,2458,-4374,1311,18724,0
7,1894,-5150,-36,3012,-4168,1165,18403,0
7,1895,-5354,288,3022,-3478,437,18157,0
7,1896,-4642,1328,2826,-2953,-262,18066,0
7,1897,-3218,3222,2484,-3288,-908,18299,0
7,1898,-2476,4506,2530,-3822,-1041,18742,0
7,1899,-2330,5014,1410,-4792,-569,19181,0
7,1900,-2218,4402,2080,-5371,-36,19492,0
7,1901,-1846,4124,2760,-5577,91,19574,0
7,1902,-864,2032,2644,-5689,388,19340,0
7,1903,-832,310,2908,-5655,638,18407,0
7,1904,-1314,-3894,3936,-5376,879,17011,0
7,1905,-2940,-4750,3844,-4664,640,15639,0
7,1906,-3256,-4946,3784,-3507,-522,14504,0
7,1907,-1586,-4230,3670,-2598,-1688,13628,0
7,1908,476,-1722,2898,-2189,-1803,13044,0
7,1909,1660,-682,2192,-2260,-1183,12826,0
7,1910,1378,264,2576,-2756,-403,12825,0
7,1911,1040,2102,1940,-3139,274,13102,0
7,1912,-166,808,2080,-3572,544,13610,0
7,1913,-662,1328,3278,-3642,428,14038,0
7,1914,-820,704,3556,-3571,92,14569,0
7,1915,-1110,1074,3118,-3400,-370,15108,0
7,1916,-922,866,2690,-3198,-707,15318,0
7,1917,-402,484,2574,-3199,-732,15600,0
7,1918,-642,-810,1686,-3213,-623,15674,0
7,1919,-416,-1168,1812,-3135,-354,15523,0
7,1920,-886,-2440,2356,-3029,17,15239,0
7,1921,-1450,-2658,1630,-2791,150,14752,0
7,1922,-1112,-2508,1526,-2497,85,14266,0
7,1923,-448,-2786,2126,-2204,16,13911,0
7,1924,-832,-2508,1204,-2042,-60,13581,0
7,1925,-606,-2174,1054,-2472,199,13667,0
7,1926,-1302,-1514,996,-2348,487,13655,0
7,1927,-436,-1608,568,-2475,375,13925,0
7,1928,-562,-1954,-10,-2222,417,13935,0
7,1929,-188,-520,696,-2102,687,14052,0
7,1930,-526,-1134,958,-2330,1010,14347,0
7,1931,-1022,-1538,534,-2344,1070,14628,0
7,1932,-930,-1088,280,-2354,842,14873,0
7,1933,-786,-1768,878,-2239,713,14992,0
7,1934,-166,-2046,-76,-2172,772,15040,0
7,1935,4,-2554,-226,-2141,859,15124,0
7,1936,342,-2324,-850,-2055,983,15162,0
7,1937,-132,-2728,-872,-1928,1233,15037,0
7,1938,-426,-2636,-1460,-1768,1333,15055,0
7,1939,-504,-1596,-1898,-1513,1226,15026,0
7,1940,-314,-2312,-1900,-1841,1158,15453,0
7,1941,-434,-1664,-2014,-1564,1137,15913,0
7,1942,38,-1260,-2038,-1514,854,16378,0
7,1943,690,-822,-2210,-1657,638,17020,0
7,1944,1120,-152,-2418,-1845,940,17499,0
7,1945,906,-1248,-3006,-2177,1355,17900,0
7,1946,430,-1780,-2408,-2372,1734,18224,0
7,1947,60,-2404,-2556,-2330,1710,18438,0
7,1948,-358,-3282,-3122,-2209,1270,18418,0
7,1949,-978,-3502,-2648,-1636,673,18331,0
7,1950,-766,-3134,-3412,-1056,140,18299,0
7,1951,-42,-1768,-3940,-782,-3,18450,0
7,1952,-6,-94,-3802,-630,150,18540,0
7,1953,60,1420,-3178,-809,247,18884,0
7,1954,378,924,-4308,-983,-161,19343,0
7,1955,1130,264,-3594,-1107,-611,19459,0
7,1956,1288,46,-3514,-1148,-585,19387,0
7,1957,1424,126,-4032,-1121,-691,19151,0
7,1958,1560,-764,-4504,-1145,-927,18962,0
7,1959,1740,438,-4320,-1140,-1202,18690,0
7,1960,1592,414,-4494,-1217,-1461,18376,0
7,1961,2056,426,-4448,-1236,-1616,18093,0
7,1962,1774,1062,-4344,-1349,-1666,17781,0
7,1963,1344,924,-4056,-1578,-1688,17639,0
7,1964,1334,472,-4700,-1790,-1682,17565,0
7,1965,1624,692,-4472,-2053,-1547,17687,0
7,1966,2056,-70,-4010,-2239,-1574,17567,0
7,1967,2630,612,-3986,-2153,-1548,17298,0
7,1968,2892,-36,-3916,-2373,-1491,16879,0
7,1969,2552,-844,-3328,-2274,-993,16240,0
7,1970,2246,-1884,-3374,-2414,-728,15693,0
7,1971,1908,-3398,-3594,-2173,-641,15022,0
7,1972,1740,-2786,-3122,-1784,-684,14275,0
7,1973,2146,-2278,-3582,-1630,-845,13642,0
7,1974,2584,-2392,-4148,-1493,-817,13029,0
7,1975,2900,-116,-3986,-1446,-673,12714,0
7,1976,3430,-394,-3352,-1599,-302,12450,0
7,1977,2990,-510,-3664,-1686,181,12281,0
7,1978,2314,346,-3028,-1717,524,12079,0
7,1979,1412,830,-1888,-1689,780,12039,0
7,1980,534,2148,-1760,-1519,937,12042,0
7,1981,-142,2656,-1310,-1503,800,12435,0
7,1982,-30,3512,-1230,-1310,201,13167,0
7,1983,1208,3304,-1116,-1565,-349,14002,0
7,1984,1740,3384,-1460,-1875,-286,14738,0
7,1985,1446,3892,-1702,-2361,338,15154,0
7,1986,274,2044,-1174,-2775,994,15401,0
7,1987,-864,830,-722,-2891,1277,15421,0
7,1988,-1178,276,-584,-2661,1136,15183,0
7,1989,-606,588,474,-2216,750,14781,0
7,1990,-822,820,-528,-1807,477,14507,0
7,1991,-436,1732,636,-1866,388,14516,0
7,1992,-662,2402,638,-1973,741,14585,0
7,1993,-694,2842,-170,-1951,911,14675,0
7,1994,-1224,2680,166,-2271,1263,14897,0
7,1995,-1272,3534,1086,-2435,1779,15125,0
7,1996,-2206,3546,1376,-2745,1926,15413,0
7,1997,-2612,3454,1190,-2841,1738,15666,0
7,1998,-2860,3742,2264,-3033,1423,16194,0
7,1999,-3006,3084,2436,-3017,1082,16716,0
7,2000,-3322,2714,2932,-3022,945,16971,0
7,2001,-3246,2900,3116,-2854,1064,17308,0
7,2002,-4168,2656,3222,-3172,1256,17784,0
7,2003,-3974,2530,2702,-2901,938,18543,0
7,2004,-3560,2610,2976,-3230,637,19037,0
7,2005,-3594,2310,3728,-3449,373,19296,0
7,2006,-4146,2922,3624,-3787,203,19373,0
7,2007,-4056,3580,3832,-4102,-68,19676,0
7,2008,-4168,4586,4616,-3990,-642,20369,0
7,2009,-3154,4678,4212,-4564,-1098,21064,0
7,2010,-2024,5188,4040,-5092,-894,21193,0
7,2011,-1246,3800,3982,-5465,-877,21068,0
7,2012,-438,1918,3992,-5945,-549,20633,0
7,2013,-1372,-984,4304,-6227,96,19724,0
7,2014,-1948,-2960,4546,-6073,116,18638,0
7,2015,-2218,-5836,4604,-5580,-91,17193,0
7,2016,-2476,-5386,4432,-4743,-508,15955,0
7,2017,-1156,-4784,4616,-4128,-1319,15130,0
7,2018,692,-3814,4120,-3730,-1691,14344,0
7,2019,2044,-2288,3346,-3520,-1279,13871,0
7,2020,2824,-1976,3278,-3676,-707,13460,0
7,2021,3306,-1272,3706,-3885,-147,13125,0
7,2022,2800,-2012,2840,-4006,386,13028,0
7,2023,2246,-2844,2886,-3921,395,12872,0
7,2024,1988,-2612,3072,-3650,468,12601,0
7,2025,1730,-2208,3624,-3298,391,12663,0
7,2026,1776,-1746,2944,-3064,301,12626,0
7,2027,1784,-856,2910,-2837,190,12839,0
7,2028,1626,-1572,3922,-3007,198,13319,0
7,2029,1052,-624,3704,-3069,452,13797,0
7,2030,566,-2058,3578,-3115,510,14164,0
7,2031,-326,-2508,4106,-2884,466,14232,0
7,2032,-334,-3536,3520,-2537,282,14217,0
7,2033,-572,-3630,2792,-2454,256,14242,0
7,2034,-1138,-3862,2724,-2260,796,14014,0
7,2035,-1702,-4750,2724,-2061,887,13875,0
7,2036,-1270,-3294,1976,-1682,413,13957,0
7,2037,28,-2300,1446,-1420,-50,14134,0
7,2038,1120,-2346,880,-1439,-58,14273,0
7,2039,1334,-1976,568,-1885,700,14457,0
7,2040,1064,-1896,62,-2333,1550,14535,0
7,2041,274,-2856,512,-2472,2023,14601,0
7,2042,-436,-3432,-434,-2367,2145,14491,0
7,2043,-448,-4196,212,-1982,2013,14161,0
7,2044,-684,-4322,-170,-1483,1795,13900,0
7,2045,-492,-2416,522,-1351,1660,14063,0
7,2046,-752,-3052,36,-1430,2012,14209,0
7,2047,-278,-1816,-618,-1096,1979,14401,0
7,2048,770,-2080,-642,-1267,1704,14878,0
7,2049,792,-2174,-1484,-1274,2143,15144,0
7,2050,116,-2440,-826,-1374,2640,15086,0
7,2051,-852,-2682,-734,-1083,2712,15048,0
7,2052,-1192,-2752,-872,-657,2444,15140,0
7,2053,-1248,-3156,-1046,-438,2159,15590,0
7,2054,-1170,-1538,-1034,-251,2013,15993,0
7,2055,-740,-1330,-1934,-153,1889,16550,0
7,2056,-786,-636,-2982,-297,1864,17302,0
7,2057,-424,-926,-3214,-469,1942,17867,0
7,2058,-550,-960,-3076,-592,2074,17968,0
7,2059,-1756,-2358,-3132,-420,2254,17990,0
7,2060,-2614,-1550,-2984,-232,2023,18034,0
7,2061,-2938,-936,-2730,-169,1473,18281,0
7,2062,-3322,264,-2936,133,967,18881,0
7,2063,-2342,1502,-3570,-22,-55,19898,0
7,2064,-1000,3512,-4124,-277,-794,20875,0
7,2065,206,2518,-4944,-468,-1711,21239,0
7,2066,1402,2494,-6108,-507,-1753,21128,0
7,2067,1674,2174,-6766,-848,-1474,20874,0
7,2068,1354,-152,-6076,-1133,-979,20494,0
7,2069,410,-1816,-7422,-1160,-545,19761,0
7,2070,-470,-1122,-7042,-709,-827,19058,0
7,2071,138,-648,-7284,-424,-1740,18730,0
7,2072,1504,1258,-7584,-568,-2415,18661,0
7,2073,2314,1236,-8036,-1273,-2213,18706,0
7,2074,2414,1778,-7920,-1836,-1634,18521,0
7,2075,3056,1720,-8508,-2137,-1237,18193,0
7,2076,3396,796,-8610,-2206,-910,17749,0
7,2077,3172,334,-7954,-2309,-577,17146,0
7,2078,2608,-1768,-8092,-2418,-131,16399,0
7,2079,2114,-2566,-7734,-2070,-48,15523,0
