id,cnt,gx,gy,gz,ax,ay,az,pls
0,0,408,698,-698,-416,662,15184,0
0,1,-384,314,-1066,-796,874,14761,0
0,2,-1038,408,-1654,-936,792,14458,0
0,3,-844,62,-1274,-1159,510,14215,0
0,4,-902,-586,-6,-1488,401,14029,0
0,5,-352,-690,-352,-1292,489,14153,0
0,6,160,-1128,-214,-1148,536,14331,0
0,7,802,-284,248,-1076,754,14481,0
0,8,1106,-538,-432,-1215,1036,14663,0
0,9,1016,-1382,-236,-1265,1235,15066,0
0,10,792,-1092,-364,-1276,1499,15508,0
0,11,442,-1336,122,-951,1448,15953,0
0,12,294,-320,-860,-877,1337,16299,0
0,13,204,-204,-64,-890,1260,16595,0
0,14,408,-596,40,-711,1028,16713,0
0,15,-56,50,-224,-660,1067,16827,0
0,16,-212,-458,-524,-565,1282,16671,0
0,17,-632,466,318,-400,1437,16365,0
0,18,-1070,-110,-906,-511,1533,16239,0
0,19,-1442,-146,-1736,-416,979,16163,0
0,20,-1430,-156,-1540,-527,354,16250,0
0,21,-968,-76,-848,-585,-39,16570,0
0,22,-394,-54,-156,-599,-36,16954,0
0,23,532,-1450,560,-341,326,17269,0
0,24,734,-446,122,43,878,17478,0
0,25,858,-804,374,668,1104,17612,0
0,26,-178,560,-766,925,1471,17646,0
0,27,-2098,176,-1366,818,1757,17641,0
0,28,-3246,-286,-1620,447,698,17250,0
0,29,-3436,-562,-2554,362,-15,17161,0
0,30,-2794,-1174,-2946,-41,-843,17346,0
0,31,-1092,-2226,-3004,-127,-1942,18099,0
0,32,1162,-2112,-2012,-163,-2135,18496,0
0,33,2094,-1996,-1504,-46,-1449,18460,0
0,34,1940,-458,-674,261,-530,17738,0
0,35,834,-690,640,541,183,16712,0
0,36,-730,930,122,1259,480,16035,0
0,37,-2684,1656,-1308,1286,341,15417,0
0,38,-3054,1300,-974,762,-629,14909,0
0,39,-1904,1206,-1850,445,-1674,14763,0
0,40,12,-206,-1954,507,-2445,14870,0
0,41,1602,340,-2382,745,-2677,15409,0
0,42,2210,-1002,-2404,561,-2431,16415,0
0,43,1908,-2364,-2278,619,-2203,17355,0
0,44,1622,-1638,-1886,1187,-1959,18013,0
0,45,824,-618,-698,1859,-1536,17967,0
0,46,-484,246,-490,1809,-1178,17465,0
0,47,-1320,662,-1124,1495,-1006,16800,0
0,48,-1700,536,-524,1157,-1082,16319,0
0,49,-1498,790,-916,1148,-1370,15759,0
0,50,-418,846,-386,1127,-1525,15155,0
0,51,294,1320,-40,962,-1247,14393,0
0,52,904,178,582,707,-770,13837,0
0,53,814,-238,-6,786,-318,13477,0
0,54,790,-66,-294,833,-31,13453,0
0,55,948,-122,-132,882,286,13556,0
0,56,532,178,-1170,784,475,13632,0
0,57,-268,282,-848,616,455,13691,0
0,58,-282,1308,-570,571,307,13734,0
0,59,-358,548,-352,494,113,13630,0
0,60,-448,-272,-398,227,-22,13589,0
0,61,-100,744,-28,44,88,13578,0
0,62,124,418,-28,113,302,13548,0
0,63,-134,-480,-640,105,480,13692,0
0,64,114,-330,-802,90,537,14227,0
0,65,644,-666,-1170,126,534,14695,0
0,66,712,132,-502,81,501,15212,0
0,67,92,1172,-560,78,452,15496,0
0,68,-348,2154,386,-115,425,15570,0
0,69,-730,2004,1032,-253,521,15488,0
0,70,-1204,1576,640,-345,751,15093,0
0,71,-832,1668,802,-373,936,14690,0
0,72,-854,686,1194,-374,1059,14511,0
0,73,-922,872,444,-342,893,14825,0
0,74,-336,-642,986,-53,778,15500,0
0,75,622,-770,1136,91,760,16192,0
0,76,780,-676,686,2,994,16851,0
0,77,814,-342,-156,80,1081,17410,0
0,78,170,-78,398,228,1167,17858,0
0,79,-472,-422,952,407,1152,18309,0
0,80,-1802,1184,364,454,1105,18835,0
0,81,-2218,1588,986,117,893,18878,0
0,82,-2602,2074,2196,-310,544,18684,0
0,83,-2612,2928,1874,-414,5,18039,0
0,84,-2500,2050,1724,-654,-487,17654,0
0,85,-2252,1808,3050,-498,-550,17608,0
0,86,-1802,1056,3246,-668,75,17578,0
0,87,-1926,-422,2140,-796,304,17647,0
0,88,-2232,-286,1286,-778,321,17949,0
0,89,-1968,-966,928,-608,-467,18375,0
0,90,-1194,-1150,-144,-969,-1558,18886,0
0,91,194,-2688,1102,-1239,-1854,19247,0
0,92,1344,-2294,2312,-1443,-1930,19225,0
0,93,824,-2584,2658,-1226,-1928,18580,0
0,94,-22,-1938,2692,-1105,-1884,17855,0
0,95,-798,-2110,3026,-1232,-2029,17251,0
0,96,-934,-3634,3270,-912,-2169,16855,0
0,97,138,-3266,3038,-632,-2413,16737,0
0,98,1558,-3322,2036,-462,-2373,16607,0
0,99,2436,-2990,1574,-572,-2245,16710,0
0,100,2708,-3138,514,-434,-2466,17170,0
0,101,2110,-3288,1112,-465,-2374,17432,0
0,102,1716,-2964,1378,-254,-2103,17502,0
0,103,1016,-2178,1528,51,-1462,17253,0
0,104,180,-782,432,233,-939,16835,0
0,105,-902,-20,122,242,-821,16188,0
0,106,-1576,756,420,57,-1075,15631,0
0,107,-1318,282,-64,-170,-1393,15079,0
0,108,-788,790,-860,-565,-1757,14623,0
0,109,1062,836,570,-607,-1657,14062,0
0,110,1670,386,928,-588,-1128,13574,0
0,111,1712,812,616,-694,-643,13253,0
0,112,1862,-52,86,-836,-100,13125,0
0,113,1850,236,-952,-756,-123,12989,0
0,114,1974,398,-1136,-609,-361,12870,0
0,115,1794,236,-1978,-549,-607,13040,0
0,116,1468,802,-1194,-613,-584,13112,0
0,117,870,814,-6,-721,-353,13244,0
0,118,820,1216,-1124,-797,-127,13209,0
0,119,282,1146,-1320,-974,-74,13149,0
0,120,462,2118,-1448,-1014,-71,13092,0
0,121,700,1252,-1932,-934,-123,13159,0
0,122,700,918,-2116,-858,-129,13348,0
0,123,982,952,-1644,-757,-49,13646,0
0,124,510,456,-1608,-657,164,13948,0
0,125,530,522,-2382,-621,418,14301,0
0,126,92,710,-2358,-608,407,14553,0
0,127,-418,1320,-2854,-660,343,14662,0
0,128,-1272,848,-2392,-794,157,14849,0
0,129,-1680,938,-2634,-870,-219,15053,0
0,130,-1260,-318,-2566,-861,-550,15372,0
0,131,-324,-630,-1262,-644,-517,15908,0
0,132,148,-468,-2058,-433,-273,16266,0
0,133,-178,-1336,-2728,-356,42,16874,0
0,134,-1384,-434,-1746,-304,507,17266,0
0,135,-2580,-618,-1758,-234,467,17624,0
0,136,-3122,-158,-2532,-260,366,17749,0
0,137,-2976,938,-1586,-292,-153,17723,0
0,138,-1700,1392,-836,-765,-1259,17813,0
0,139,-702,1562,-386,-1242,-2110,18026,0
0,140,-528,-342,1182,-1074,-1849,18391,0
0,141,-428,-516,2140,-740,-1267,18748,0
0,142,262,-1960,1228,-817,-319,19252,0
0,143,-22,-2100,-224,-448,513,20174,0
0,144,284,-1128,-2404,-256,404,20400,0
0,145,-314,-1450,-3038,-172,-207,20068,0
0,146,-1182,-722,-3626,-152,-1093,19912,0
0,147,-1510,-1638,-2866,-157,-2230,19901,0
0,148,-1734,-896,-1874,-52,-3119,19736,0
0,149,-1626,-980,-1424,0,-3578,19334,0
0,150,-316,-782,-1044,-25,-3649,18699,0
0,151,420,-676,-374,203,-3231,18046,0
0,152,1084,-896,236,275,-2290,17254,0
0,153,1152,-1474,-190,570,-1770,16626,0
0,154,892,-1300,40,927,-1177,15766,0
0,155,272,-1450,-236,776,-860,15297,0
0,156,634,-2548,-698,838,-1143,15111,0
0,157,1388,-1914,-1436,911,-1473,15412,0
0,158,1512,502,-1194,704,-1287,15458,0
0,159,1388,478,-766,636,-782,15142,0
0,160,724,1414,-340,660,-420,14556,0
0,161,610,2178,-202,625,-54,13793,0
0,162,-66,1726,-86,378,-48,13003,0
0,163,700,976,-224,388,-227,12303,0
0,164,1196,260,-420,677,-194,12125,0
0,165,1692,-272,98,553,-228,12324,0
0,166,2314,-30,-952,409,-146,12698,0
0,167,2266,-136,-1746,231,62,13123,0
0,168,1682,4,-2462,155,16,13622,0
0,169,1264,1368,-2324,61,-109,14045,0
0,170,732,1378,-1886,-5,-229,14183,0
0,171,464,1970,-1436,-152,-312,14200,0
0,172,138,1900,-974,-364,-229,13760,0
0,173,-572,1518,-570,-527,-259,13568,0
0,174,-10,710,-606,-478,-401,13754,0
0,175,854,800,-582,-463,-243,14157,0
0,176,1772,998,156,-346,-41,14733,0
0,177,1828,490,-178,-335,425,15267,0
0,178,1310,1622,-214,-153,1175,15466,0
0,179,-246,1542,628,-286,1394,15397,0
0,180,-968,2084,340,-367,1187,15248,0
0,181,-1260,1576,432,-567,860,15267,0
0,182,-1136,1368,616,-837,714,15228,0
0,183,-1046,1218,744,-968,551,15341,0
0,184,-868,258,132,-1240,240,15577,0
0,185,172,364,986,-1013,85,16139,0
0,186,204,294,2336,-869,100,16622,0
0,187,634,-100,2532,-1141,115,16936,0
0,188,904,-746,3326,-1049,498,17240,0
0,189,588,-816,4860,-782,1132,17378,0
0,190,-1012,780,4676,-496,1766,17235,0
0,191,-3370,418,3396,-567,1770,17320,0
0,192,-4440,976,3662,-818,1120,17485,0
0,193,-4090,236,3442,-1596,81,17596,0
0,194,-1724,-1822,2336,-2066,-1035,17826,0
0,195,1220,-2572,1908,-1701,-1694,18658,0
0,196,3202,-3568,2578,-1887,-1375,19633,0
0,197,3146,-3164,2682,-1541,-391,20455,0
0,198,1726,-2642,3880,-1132,127,20142,0
0,199,174,-3334,4226,-749,288,19501,0
0,200,-1588,-2248,3338,-253,489,19002,0
0,201,-2648,-2040,2036,-719,266,18178,0
0,202,-2218,-1786,882,-1193,-487,17334,0
0,203,-2084,-1762,74,-1195,-1009,16939,0
0,204,-846,-1788,-882,-954,-1489,16713,0
0,205,-190,-596,-812,-898,-1774,16716,0
0,206,-136,-1418,-352,-940,-1729,16573,0
0,207,-834,-1406,-1158,-880,-1483,16421,0
0,208,-1644,-930,-444,-938,-1551,16019,0
0,209,-1994,-1300,168,-1211,-2038,15440,0
0,210,-1318,-1382,-536,-1399,-2521,15287,0
0,211,-212,-1866,248,-1206,-2657,15403,0
0,212,1298,-1324,952,-1169,-2155,15557,0
0,213,1558,-330,778,-1261,-1627,15289,0
0,214,1208,-272,502,-1336,-1256,14701,0
0,215,668,4,1240,-1215,-1137,14224,0
0,216,906,52,1620,-974,-939,13574,0
0,217,496,-252,710,-751,-760,12974,0
0,218,690,156,1736,-750,-680,12661,0
0,219,1062,-700,1274,-832,-674,12589,0
0,220,1704,-884,1378,-759,-530,12665,0
0,221,2188,-596,1320,-641,-351,13083,0
0,222,2142,-286,444,-716,-154,13580,0
0,223,1680,-44,-18,-728,-18,14066,0
0,224,520,386,-766,-666,-300,14520,0
0,225,-100,98,168,-707,-738,14663,0
0,226,-110,-180,-294,-695,-898,14739,0
0,227,148,-804,6,-695,-817,14811,0
0,228,1164,-618,720,-709,-624,14945,0
0,229,1648,-1358,-74,-588,-308,15326,0
0,230,1726,190,-420,-399,97,15776,0
0,231,642,396,-652,-365,631,15999,0
0,232,-234,756,260,-395,851,15877,0
0,233,-978,-214,-1354,-425,465,15658,0
0,234,-946,652,-1562,-255,-159,15513,0
0,235,-822,190,-860,-325,-717,15747,0
0,236,-258,-422,-1862,-328,-1036,16425,0
0,237,326,-1822,-1412,-444,-939,17179,0
0,238,452,-1358,-1562,-182,-597,17928,0
0,239,58,-514,-1690,-44,-442,18540,0
0,240,-76,-296,-860,174,17,18770,0
0,241,-1050,372,-676,282,632,18301,0
0,242,-2062,906,-710,227,739,18000,0
0,243,-2772,1346,-2082,431,406,17877,0
0,244,-3244,1392,-2566,303,64,18083,0
0,245,-2886,904,-2300,47,-542,18286,0
0,246,-1914,306,-2820,60,-1100,18678,0
0,247,-1194,432,-3684,119,-1405,19170,0
0,248,-348,676,-2750,27,-1395,19265,0
0,249,-630,676,-2128,508,-1099,18939,0
0,250,-1658,1170,-3326,729,-897,18416,0
0,251,-2062,618,-2612,651,-874,17813,0
0,252,-1904,976,-2312,561,-1290,17288,0
0,253,-1734,166,-3074,125,-1928,16996,0
0,254,-360,-644,-2738,166,-2300,16609,0
0,255,318,-1706,-3408,409,-2378,16362,0
0,256,700,-2860,-2738,410,-2405,16398,0
0,257,1184,-3314,-2600,344,-2255,16719,0
0,258,1828,-3266,-1516,564,-1942,17274,0
0,259,1602,-3266,-1550,1013,-1340,17517,0
1,260,-2286,676,-664,-531,632,16327,0
1,261,-1970,-6,-928,-506,579,16745,0
1,262,-2152,-6,-1032,-336,775,17136,0
1,263,-2264,836,-1758,-438,961,17448,0
1,264,-2818,280,-2382,-630,640,17695,0
1,265,-3222,-296,-3280,-435,-365,17845,0
1,266,-2190,-1326,-3938,-246,-801,18415,0
1,267,-2332,-1762,-3984,-27,-710,19477,0
1,268,-1554,-1612,-5668,-54,-848,20648,0
1,269,-1160,-2144,-6324,72,-1160,21477,0
1,270,-1374,-1960,-5172,162,-1356,22080,0
1,271,-1600,-678,-4134,689,-1778,21883,0
1,272,-1780,-862,-2808,1075,-1458,20770,0
1,273,-2164,1910,-1712,1349,-1038,19574,0
1,274,-2242,2004,-1954,1283,-1309,18297,0
1,275,-2400,2628,-2520,975,-1797,17273,0
1,276,-1610,1484,-1746,654,-2270,16600,0
1,277,-574,1286,-906,710,-2753,16219,0
1,278,478,282,-1194,743,-2927,15858,0
1,279,1758,-632,-1066,790,-2772,15775,0
1,280,2526,-1048,-710,832,-2490,15683,0
1,281,2594,-1866,-478,909,-2383,15767,0
1,282,3316,-1924,-570,1228,-2016,16064,0
1,283,2730,-1578,502,1750,-1503,16275,0
1,284,2288,-586,928,1935,-1004,16161,0
1,285,1478,1114,52,1768,-548,15697,0
1,286,138,1946,328,1653,-323,14983,0
1,287,-642,4024,340,1264,-264,14119,0
1,288,-902,3424,-248,723,-566,13149,0
1,289,-472,2350,-478,298,-1236,12289,0
1,290,644,2732,386,171,-1579,12010,0
1,291,1670,1034,214,113,-1623,12255,0
1,292,2910,398,306,24,-1433,12829,0
1,293,3958,-30,882,108,-1136,13503,0
1,294,3778,-146,1102,402,-537,14149,0
1,295,2750,1170,144,458,75,14286,0
1,296,1048,1066,514,364,277,14158,0
1,297,-226,2048,1170,120,178,13852,0
1,298,-314,2246,260,60,-224,13588,0
1,299,318,1842,514,-55,-444,13660,0
1,300,1478,1842,1206,-214,-366,13785,0
1,301,1918,1022,1562,-249,-55,14023,0
1,302,2030,1090,986,-338,233,14251,0
1,303,1636,640,2046,-337,560,14421,0
1,304,1288,894,2646,-262,795,14523,0
1,305,992,870,2174,-207,817,14660,0
1,306,1276,306,1920,126,702,14999,0
1,307,1072,722,2058,47,1026,15305,0
1,308,518,788,1896,64,1318,15750,0
1,309,-324,884,1274,107,1622,16031,0
1,310,-878,964,1504,51,1571,16154,0
1,311,-1024,998,1550,-70,1281,16324,0
1,312,-414,1346,570,-171,939,16618,0
1,313,24,676,802,-152,932,16981,0
1,314,262,270,870,-95,976,17355,0
1,315,16,1750,1032,-12,1264,17715,0
1,316,-1126,1438,420,-362,1644,17763,0
1,317,-1782,2072,294,-483,1562,17530,0
1,318,-3832,2790,-122,-450,1156,17434,0
1,319,-4464,3538,-802,-1071,651,17518,0
1,320,-4824,2986,-364,-1721,-87,17418,0
1,321,-4508,1600,-514,-1826,-943,17614,0
1,322,-3890,1100,-178,-1274,-1367,18096,0
1,323,-3674,560,1102,-1165,-1472,18443,0
1,324,-2466,-134,1320,-1398,-1038,18555,0
1,325,-1836,-1462,1124,-1531,-817,18493,0
1,326,-730,-1300,824,-1399,-925,18342,0
1,327,-674,-1232,1066,-1484,-1292,18230,0
1,328,-744,-2852,1252,-1669,-1758,18060,0
1,329,-1070,-3554,1252,-1487,-2250,17969,0
1,330,-1048,-3694,1032,-1289,-2631,17852,0
1,331,48,-2906,974,-912,-2843,17765,0
1,332,1062,-2618,1528,-593,-2482,17520,0
1,333,1264,-2826,1112,-619,-2183,17304,0
1,334,1140,-2434,720,-686,-1994,17214,0
1,335,780,-2688,1228,-545,-2033,16963,0
1,336,882,-2376,1044,-595,-1991,16687,0
1,337,1318,-2528,318,-549,-2128,16269,0
1,338,1422,-1982,756,-487,-2214,15806,0
1,339,1320,-1890,870,-513,-2139,15444,0
1,340,1614,-1948,582,-445,-1987,15107,0
1,341,2032,-1450,1504,-435,-1466,14752,0
1,342,2344,-44,732,-448,-924,14291,0
1,343,2064,-146,616,-223,-545,13777,0
1,344,1568,478,-328,-266,-436,13171,0
1,345,1432,38,-882,-400,-567,12833,0
1,346,1510,-678,-1540,-392,-869,12654,0
1,347,2290,-1162,-1112,-463,-1072,12813,0
1,348,2370,-1128,-1632,-569,-1064,13282,0
1,349,2526,-990,-1412,-641,-849,13738,0
1,350,2020,-942,-1562,-612,-841,14043,0
1,351,1636,-1358,-1436,-406,-756,14240,0
1,352,1320,-1070,-894,-321,-764,14300,0
1,353,882,-954,-1066,-368,-609,14237,0
1,354,916,-180,-1574,-289,-339,13876,0
1,355,678,-630,-1724,-166,14,13664,0
1,356,306,-480,-1228,-302,219,13718,0
1,357,148,-526,-2036,-344,253,13919,0
1,358,296,-422,-2162,-218,241,13987,0
1,359,-272,-598,-1966,-253,299,14267,0
1,360,-516,-538,-2542,-374,175,14620,0
1,361,-900,-850,-2820,-439,32,14922,0
1,362,-854,-712,-2934,-438,-38,15228,0
1,363,-1284,-816,-3488,-209,-74,15852,0
1,364,-1610,-804,-3776,-252,194,16422,0
1,365,-2478,-296,-3512,-342,428,16781,0
1,366,-3180,-124,-3222,-466,85,16994,0
1,367,-3054,-6,-3776,-466,-561,17158,0
1,368,-2084,40,-2600,-372,-644,17459,0
1,369,-1814,28,-1158,-199,28,17486,0
1,370,-2704,120,-1794,104,663,17435,0
1,371,-3774,-400,-3200,169,881,17783,0
1,372,-4056,-896,-3466,291,718,18217,0
1,373,-3854,-562,-3372,168,-76,18565,0
1,374,-2624,-1844,-5460,-344,-872,18985,0
1,375,-2354,-734,-5436,-562,-1374,19905,0
1,376,-1814,-618,-5102,-577,-2047,20364,0
1,377,-552,-1418,-4238,-556,-2248,20615,0
1,378,-664,-1092,-3212,-180,-1881,20307,0
1,379,-608,882,-3500,321,-1760,19762,0
1,380,-1160,294,-2878,509,-1781,19100,0
1,381,-1646,234,-3200,386,-2097,18153,0
1,382,-1014,-1106,-1966,121,-2460,17107,0
1,383,328,-1774,-2140,114,-2699,16613,0
1,384,1874,-1186,-2220,598,-2776,16570,0
1,385,2254,-1660,-2878,745,-2406,17025,0
1,386,1772,-978,-2162,763,-2040,17390,0
1,387,1206,96,-2186,973,-1458,17385,0
1,388,48,698,-2670,864,-1092,17057,0
1,389,-416,1196,-2716,524,-1434,16538,0
1,390,48,744,-1896,380,-1953,15922,0
1,391,510,1206,-1700,151,-2092,15270,0
1,392,1294,696,52,94,-1623,14472,0
1,393,1376,210,732,260,-943,13870,0
1,394,1592,756,40,254,-265,13548,0
1,395,2088,1820,294,70,122,13244,0
1,396,1882,1240,398,124,289,12901,0
1,397,1444,410,18,131,150,12587,0
1,398,1704,1530,340,-47,-186,12474,0
1,399,1850,1368,790,-125,-454,12508,0
1,400,2562,930,616,-104,-289,12603,0
1,401,1748,488,144,-16,-51,12646,0
1,402,1140,306,420,11,73,12811,0
1,403,938,502,236,-107,-34,13068,0
1,404,1186,120,-202,-90,-245,13373,0
1,405,1422,202,386,-65,-274,13807,0
1,406,1660,120,606,-165,-42,14291,0
1,407,1072,860,720,-326,149,14593,0
1,408,822,1100,444,-271,183,14694,0
1,409,-100,894,848,-511,478,14636,0
1,410,-554,1158,1320,-603,455,14432,0
1,411,-382,1056,1954,-633,246,14480,0
1,412,430,1230,1724,-555,375,14703,0
1,413,916,606,1828,-430,626,15019,0
1,414,938,1218,1874,-564,1215,15382,0
1,415,-90,512,1458,-503,1483,15842,0
1,416,-324,-272,940,-401,1262,16439,0
1,417,-224,-238,1678,-471,952,16963,0
1,418,58,248,1654,-399,516,17750,0
1,419,172,756,2000,-401,540,18283,0
1,420,-562,988,2508,-655,860,18546,0
1,421,-2252,2154,3270,-509,1227,18241,0
1,422,-3880,2764,2946,-497,1205,17990,0
1,423,-4846,2882,1944,-1087,505,17772,0
1,424,-3630,2176,1574,-2281,-600,17661,0
1,425,-1824,998,1586,-2517,-1287,18230,0
1,426,104,156,1690,-1807,-1788,18992,0
1,427,1106,-492,1794,-2068,-1501,19747,0
1,428,1130,-954,2428,-2063,-650,20117,0
1,429,-112,-1776,2842,-1435,-282,19541,0
1,430,-844,-434,2346,-1293,-502,18885,0
1,431,-744,-1244,1494,-1662,-829,18473,0
1,432,-1252,-2690,1574,-2029,-1226,17987,0
1,433,-246,-2434,1262,-1979,-2015,17790,0
1,434,544,-2954,1448,-1816,-2476,17887,0
1,435,1260,-2990,1494,-1575,-2625,17918,0
1,436,1172,-2482,2012,-1455,-2471,17759,0
1,437,824,-2884,2220,-1230,-2104,17552,0
1,438,696,-1546,2532,-939,-1715,17044,0
1,439,374,-1624,2774,-833,-1124,16164,0
1,440,-302,-1220,2508,-745,-759,15324,0
1,441,-720,-874,2128,-556,-728,14525,0
1,442,-854,-596,1700,-1013,-1033,14039,0
1,443,-32,-1162,1758,-1179,-1472,13623,0
1,444,306,-1578,1344,-1099,-1375,13181,0
1,445,916,-1092,1850,-1135,-1111,12865,0
1,446,1316,-1222,1966,-994,-631,12712,0
1,447,1378,-966,1448,-1072,-275,12621,0
1,448,1682,-1382,860,-1199,-336,12562,0
1,449,1814,-1118,1112,-1105,-630,12632,0
1,450,2414,-1856,744,-812,-803,12973,0
1,451,2196,-1406,812,-625,-537,13399,0
1,452,1230,-342,732,-570,6,13457,0
1,453,-224,398,536,-755,163,13374,0
1,454,-1160,-608,-790,-982,-266,13432,0
1,455,-234,-204,-1044,-1074,-857,13535,0
1,456,-100,-6,-64,-1247,-1114,13582,0
1,457,442,-630,-64,-1234,-893,13752,0
1,458,270,-1684,1032,-1262,-382,14141,0
1,459,486,-1162,1482,-1202,160,14402,0
1,460,234,-990,502,-1088,560,14659,0
1,461,-110,-896,-98,-1015,909,14963,0
1,462,-368,-6,-282,-1088,1170,14856,0
1,463,-642,-274,-236,-1032,1235,14878,0
1,464,-1114,-272,-686,-926,951,14922,0
1,465,-1024,-1138,-616,-780,801,15242,0
1,466,-1114,-1312,-432,-783,855,15586,0
1,467,-1102,-1138,-1066,-735,1071,16005,0
1,468,-1508,-1290,-1308,-693,1147,16778,0
1,469,-1948,478,-1540,-741,974,17495,0
1,470,-2422,-816,-1482,-671,713,18054,0
1,471,-3346,848,-906,-1001,687,18153,0
1,472,-3538,-746,-1262,-786,592,18381,0
1,473,-3842,560,-1528,-310,452,18711,0
1,474,-4090,514,-2866,-328,212,19097,0
1,475,-4204,-6,-3662,-507,-327,19793,0
1,476,-3650,-238,-4088,-756,-1020,20190,0
1,477,-3054,-630,-4284,-856,-2050,21137,0
1,478,-1510,-760,-3846,-602,-2747,21894,0
1,479,126,248,-1932,-283,-2645,22080,0
1,480,362,1300,-110,-357,-1872,20936,0
1,481,-418,1944,-132,-201,-1394,19550,0
1,482,-1352,2152,-560,248,-1722,18473,0
1,483,-880,1402,410,291,-2450,17500,0
1,484,788,50,1252,210,-2746,16735,0
1,485,2470,-1636,178,733,-2646,16269,0
1,486,3584,-1164,-790,874,-2202,16179,0
1,487,3462,-1404,-1354,1151,-1765,16756,0
1,488,3136,-780,-1942,1223,-1735,17363,0
1,489,2380,-1208,-2520,1222,-1837,17657,0
1,490,1546,-284,-1758,1317,-2110,17667,0
1,491,1072,432,-1712,1153,-2360,17574,0
1,492,766,720,-1598,1032,-2450,17171,0
1,493,494,1552,-168,958,-2234,16498,0
1,494,236,1078,1494,796,-1600,15460,0
1,495,306,1334,606,597,-829,14500,0
1,496,296,836,110,615,-521,13301,0
1,497,352,1034,720,426,-505,12560,0
1,498,1400,976,-190,239,-576,12272,0
1,499,2332,-274,-110,123,-667,12255,0
1,500,2798,-446,214,2,-809,12482,0
1,501,3068,-376,236,-68,-789,12943,0
1,502,2798,-966,-248,-121,-667,13366,0
1,503,2886,-148,178,51,-417,13712,0
1,504,2268,-52,1228,126,83,13791,0
1,505,1692,860,616,247,498,13625,0
1,506,1016,780,664,315,651,13476,0
1,507,756,430,698,196,603,13471,0
1,508,926,1310,18,146,607,13553,0
1,509,792,1668,-64,-46,798,13640,0
1,510,634,1738,64,-324,878,13776,0
1,511,420,1310,168,-568,820,13823,0
1,512,14,1600,686,-675,764,13733,0
1,513,-100,1218,882,-773,658,13658,0
1,514,498,1460,1412,-905,672,13712,0
1,515,1354,260,1770,-780,884,14172,0
1,516,1340,766,1112,-648,1148,14644,0
1,517,1704,2374,652,-690,1632,15167,0
1,518,262,1600,1158,-783,2145,15509,0
1,519,-618,1612,432,-772,1960,15622,0
2,520,-516,-1394,6902,-1149,324,16204,0
2,521,-868,-1198,7466,-1057,-101,15832,0
2,522,-1104,-1614,6786,-797,-452,15505,0
2,523,-246,-2178,6682,-761,-712,15409,0
2,524,236,-2898,6302,-463,-965,15837,0
2,525,1400,-2676,6176,-206,-606,16631,0
2,526,2032,-1624,6406,0,51,17167,0
2,527,1434,-1242,5426,-134,789,17176,0
2,528,-294,-90,4756,-539,1071,17028,0
2,529,-1724,200,4502,-820,586,16569,0
2,530,-1082,-886,4376,-719,-311,15940,0
2,531,-606,-1832,4354,-687,-822,15861,0
2,532,1174,-2236,4296,-455,-762,16059,0
2,533,1792,-2342,4318,-181,-174,16497,0
2,534,1546,-2330,3270,-43,508,16769,0
2,535,622,-2132,3522,241,922,16658,0
2,536,-202,-632,2634,349,968,16498,0
2,537,-800,-228,560,14,255,16162,0
2,538,-810,224,98,-318,-628,16045,0
2,539,-1128,-840,686,-664,-1256,15972,0
2,540,-754,-1636,-6,-691,-1699,16312,0
2,541,-1002,-2074,386,-482,-1688,16824,0
2,542,-324,-2018,-328,-360,-1623,17350,0
2,543,-280,-2282,-1124,-411,-1412,17673,0
2,544,-10,-1914,-1632,-214,-1849,17895,0
2,545,70,-2144,-410,48,-2137,18093,0
2,546,160,-562,-812,-108,-1952,18124,0
2,547,-404,-562,-260,-352,-1537,17742,0
2,548,-1240,-78,-824,-301,-1727,17104,0
2,549,-1556,-298,-444,-241,-1981,16447,0
2,550,-1060,-968,524,-187,-1956,16030,0
2,551,-484,-262,790,-84,-1894,15744,0
2,552,250,-1208,432,236,-1734,15821,0
2,553,420,-688,74,383,-1397,16095,0
2,554,204,294,-524,204,-1140,16034,0
2,555,-136,60,-386,230,-909,15786,0
2,556,-988,1300,-570,191,-680,15410,0
2,557,-1722,490,306,-131,-777,14746,0
2,558,-1464,410,-132,-364,-1140,14216,0
2,559,-664,-284,432,-272,-1519,13785,0
2,560,748,-318,1056,-228,-1539,13805,0
2,561,1456,-816,1816,-110,-1040,13978,0
2,562,1534,-1244,502,15,-601,14299,0
2,563,1434,-1128,306,-76,-222,14550,0
2,564,622,-1498,132,-29,-85,14755,0
2,565,80,-308,-260,-67,-330,14696,0
2,566,24,-458,-98,-152,-681,14641,0
2,567,-148,-252,1286,-114,-719,14545,0
2,568,36,-618,1402,-215,-630,14557,0
2,569,70,-388,1550,-401,-189,14336,0
2,570,-302,-376,1458,-280,178,14253,0
2,571,-100,-342,1020,-147,665,14252,0
2,572,-438,-134,132,-357,851,14231,0
2,573,-506,328,214,-598,655,14326,0
2,574,-448,-504,1078,-611,338,14522,0
2,575,136,1008,514,-638,428,14759,0
2,576,126,756,1262,-799,821,14944,0
2,577,-700,1158,2036,-912,1079,14916,0
2,578,-618,930,2082,-1044,1088,14801,0
2,579,-1038,466,1516,-1155,839,14738,0
2,580,-292,1092,1424,-1146,566,14859,0
2,581,262,-908,1540,-1125,702,15097,0
2,582,758,-884,1274,-788,885,15692,0
2,583,1106,-318,1320,-665,1187,16383,0
2,584,644,236,2438,-783,1622,16964,0
2,585,0,708,916,-963,1718,17424,0
2,586,-712,142,502,-1197,1398,17792,0
2,587,-1204,1172,744,-785,919,17986,0
2,588,-1240,1574,1632,-853,492,18365,0
2,589,-654,1402,1574,-1141,425,18545,0
2,590,-798,1912,1840,-1292,588,18374,0
2,591,-1226,1784,1944,-1512,236,18189,0
2,592,-1294,1692,906,-1926,-421,18112,0
2,593,-1060,846,1550,-2182,-929,18197,0
2,594,-550,202,2312,-2215,-1348,18510,0
2,595,-630,468,1366,-2177,-1673,19280,0
2,596,-1226,-988,1794,-2328,-1858,19528,0
2,597,-416,-920,2878,-2318,-2377,19489,0
2,598,360,-1650,3742,-2102,-2652,19348,0
2,599,834,-1106,4214,-2140,-2721,18771,0
2,600,1806,-1416,5668,-1927,-2419,17915,0
2,601,1670,-1150,6532,-1336,-1953,17248,0
2,602,1354,-1242,6244,-825,-1270,16842,0
2,603,1070,-1198,5726,-774,-739,16568,0
2,604,870,-1000,4410,-818,-650,16199,0
2,605,1668,-1800,3224,-989,-911,16024,0
2,606,2458,-2412,2428,-1140,-1287,15983,0
2,607,2674,-2838,1678,-1115,-1613,16161,0
2,608,2920,-2944,2450,-1013,-1913,16310,0
2,609,2584,-3878,2336,-886,-1955,16406,0
2,610,2222,-4200,2312,-653,-1861,16304,0
2,611,2392,-2872,2566,-358,-1860,16328,0
2,612,2944,-2318,2404,-232,-1609,16813,0
2,613,2922,-930,1586,-194,-1049,16767,0
2,614,2008,144,2624,-117,-606,16233,0
2,615,622,618,3038,-339,-325,15342,0
2,616,-34,1286,2566,-263,-201,14231,0
2,617,-336,940,2150,-436,-293,13123,0
2,618,678,1564,1148,-551,-266,12382,0
2,619,904,-76,1504,-686,-11,11794,0
2,620,1230,-284,674,-851,-106,11796,0
2,621,1838,-356,352,-997,-340,12314,0
2,622,1964,-1034,444,-774,-381,12817,0
2,623,2184,-124,582,-634,-181,13459,0
2,624,1628,-192,374,-726,-1,13836,0
2,625,814,340,432,-729,65,14202,0
2,626,420,524,190,-745,185,14356,0
2,627,238,178,-294,-726,131,14467,0
2,628,146,870,-398,-664,143,14551,0
2,629,418,-90,6,-688,188,14640,0
2,630,622,-156,-144,-922,152,14817,0
2,631,-76,86,-536,-943,223,14859,0
2,632,-292,1242,-328,-796,245,15030,0
2,633,-392,652,-40,-845,206,15207,0
2,634,-1668,904,-374,-873,157,15389,0
2,635,-2188,188,-778,-758,84,15366,0
2,636,-2512,120,-940,-634,5,15629,0
2,637,-2772,686,-1354,-654,-219,15880,0
2,638,-2772,190,-1932,-523,-467,16339,0
2,639,-2300,-66,-1078,-490,-775,17057,0
2,640,-1486,166,-1148,-693,-882,17555,0
2,641,-1388,-390,-954,-273,-448,17789,0
2,642,-2016,-654,-1528,317,-80,18123,0
2,643,-3056,-632,-1954,562,-114,18330,0
2,644,-3820,-1440,-2680,494,-481,18369,0
2,645,-3314,-1256,-2784,695,-1005,18591,0
2,646,-2930,-1936,-2970,834,-1111,19144,0
2,647,-1824,-1358,-4642,850,-1424,19736,0
2,648,-992,-864,-4456,921,-1834,20075,0
2,649,-66,524,-2970,959,-2061,20071,0
2,650,-978,-64,-2612,1256,-1226,19246,0
2,651,-2456,-250,-2774,1371,-779,18254,0
2,652,-2850,1102,-2808,1221,-1010,17256,0
2,653,-2376,-330,-2438,572,-1526,16467,0
2,654,-2040,-1130,-3372,653,-2270,15878,0
2,655,-358,-1346,-2358,800,-2941,15750,0
2,656,970,-2180,-1886,963,-3033,15992,0
2,657,1454,-2804,-2046,993,-2370,16339,0
2,658,1510,-2794,-1782,1104,-1857,16628,0
2,659,1172,-2654,-1724,1306,-1566,17020,0
2,660,1220,-1658,-2520,1271,-1637,17280,0
2,661,1138,-1244,-2254,1212,-1552,17324,0
2,662,318,560,-1632,1111,-1196,16821,0
2,663,-126,454,-226,862,-931,15789,0
2,664,-280,1206,-364,965,-773,14860,0
2,665,114,1322,40,858,-433,14185,0
2,666,340,1588,214,810,-124,13468,0
2,667,1040,1080,-536,719,307,12949,0
2,668,1240,720,-940,590,620,12647,0
2,669,1264,1300,-1390,423,719,12579,0
2,670,1522,892,-1966,250,486,12634,0
2,671,1670,686,-2820,117,-29,12942,0
2,672,1592,1356,-2150,-37,-353,13211,0
2,673,1118,1068,-870,-70,-316,13398,0
2,674,746,1252,-1124,6,-269,13586,0
2,675,370,708,-1090,207,-54,13818,0
2,676,250,502,-732,275,268,13832,0
2,677,656,514,-720,-98,295,13743,0
2,678,780,768,-1932,-34,206,14038,0
2,679,1026,824,-1170,-162,198,14354,0
2,680,1140,306,-1066,-396,249,14692,0
2,681,792,1588,-698,-462,747,14975,0
2,682,-10,2270,-340,-578,1140,14762,0
2,683,-742,1322,144,-517,1084,14549,0
2,684,-596,1796,778,-444,892,14621,0
2,685,-494,1772,1148,-472,926,14750,0
2,686,-260,1470,1228,-517,1093,15035,0
2,687,-226,1470,1252,-315,1209,15367,0
2,688,-674,1762,870,-371,1366,15662,0
2,689,-922,1484,190,-422,1194,16091,0
2,690,-946,340,548,-307,584,16830,0
2,691,-20,306,478,-238,119,17830,0
2,692,608,326,1136,-402,455,18312,0
2,693,250,468,1102,-379,796,18491,0
2,694,-1396,340,502,-322,824,18474,0
2,695,-3234,28,536,-394,238,18808,0
2,696,-3730,606,260,-737,-446,19086,0
2,697,-2728,38,-720,-1233,-1656,19489,0
2,698,-980,-1302,-282,-1233,-2561,20327,0
2,699,1252,-1130,1020,-1104,-2658,21077,0
2,700,2302,-712,1724,-315,-1659,21437,0
2,701,858,606,2934,69,4,20481,0
2,702,-1780,2120,2830,-87,966,18999,0
2,703,-4080,1530,2116,-220,906,17999,0
2,704,-4982,1216,178,-607,-324,17119,0
2,705,-3616,190,110,-1465,-2110,16754,0
2,706,-1128,-1084,860,-1488,-3348,16729,0
2,707,1344,-2386,156,-1358,-3656,17087,0
2,708,2494,-3588,260,-1426,-3332,17682,0
2,709,2962,-2920,1308,-1126,-3174,18228,0
2,710,3000,-3022,1528,-638,-2677,18241,0
2,711,1784,-1948,2140,-103,-1917,17807,0
2,712,1116,-1592,2382,-151,-1406,16714,0
2,713,780,-1878,2404,-38,-1069,15809,0
2,714,1118,-1404,1044,216,-828,15037,0
2,715,1096,-1208,916,-108,-884,14534,0
2,716,1332,-978,1354,-323,-1152,13960,0
2,717,1862,-862,1206,-439,-1164,13668,0
2,718,1896,16,490,-531,-1164,13527,0
2,719,2062,418,1078,-601,-1113,13256,0
2,720,1716,-850,1516,-732,-886,12871,0
2,721,1906,-1650,686,-708,-722,12589,0
2,722,2200,-1186,352,-638,-887,12459,0
2,723,3010,-1800,594,-409,-963,12918,0
2,724,3744,-1370,-514,-185,-723,13562,0
2,725,3122,-1592,-364,-144,-483,14013,0
2,726,2404,-514,-98,-152,-272,14269,0
2,727,1276,294,-732,-235,-102,14314,0
2,728,746,-330,-1654,-317,-284,14199,0
2,729,644,166,-1412,-344,-535,14110,0
2,730,1136,-32,-1448,-402,-664,14222,0
2,731,878,-378,-1736,-542,-594,14392,0
2,732,1072,-192,-766,-601,-371,14385,0
2,733,340,236,-306,-490,55,14264,0
2,734,-540,432,-1020,-445,412,14128,0
2,735,-654,304,-1540,-510,410,14061,0
2,736,-596,732,-1598,-706,105,14162,0
2,737,-314,28,-1390,-447,-107,14397,0
2,738,-34,-1372,-2116,-437,-187,14824,0
2,739,160,-758,-1886,-256,-84,15327,0
2,740,-48,-1488,-1402,1,334,16046,0
2,741,-270,-818,-2336,177,741,16671,0
2,742,-1418,156,-2934,360,908,17168,0
2,743,-2546,572,-2474,346,1093,17474,0
2,744,-3426,836,-2300,127,1004,17529,0
2,745,-4666,1160,-2842,102,1200,17472,0
2,746,-4960,2222,-2670,28,1210,17029,0
2,747,-5352,1692,-3280,-338,635,16693,0
2,748,-4970,606,-4204,-125,55,16583,0
2,749,-4192,640,-3822,78,-283,16920,0
2,750,-2716,-990,-3788,114,-181,17460,0
2,751,-2742,-1800,-5356,-59,201,18440,0
2,752,-2648,-1960,-6682,101,-48,19612,0
2,753,-2658,-1024,-6752,368,-672,20320,0
2,754,-2196,212,-7502,269,-1398,20481,0
2,755,-2492,1032,-6752,-397,-1724,20058,0
2,756,-3876,132,-4756,-503,-2132,19532,0
2,757,-3868,-20,-3822,-601,-3261,18851,0
2,758,-2332,-1034,-2462,-381,-3995,18321,0
2,759,-484,-1292,-986,-79,-3715,17892,0
2,760,1432,-1510,-386,-212,-2989,17264,0
2,761,2742,-2398,-848,-32,-2101,16900,0
2,762,2772,-2690,-374,452,-1438,16489,0
2,763,2502,-3094,-1402,736,-1242,16421,0
2,764,2324,-2502,-2336,541,-1212,16750,0
2,765,2286,-2470,-1724,397,-1293,17071,0
2,766,2042,-1658,-1044,168,-1194,16939,0
2,767,1692,-330,-606,-82,-853,16341,0
2,768,778,-864,-190,-171,-558,15403,0
2,769,668,-146,40,-217,-447,14311,0
2,770,1546,202,-306,-516,-521,13666,0
2,771,2458,-194,-882,-504,-509,13188,0
2,772,3148,744,-870,-440,-330,13098,0
2,773,2776,468,-860,-480,-109,13031,0
2,774,1884,872,-1252,-657,-295,12894,0
2,775,1634,662,-410,-755,-506,12930,0
2,776,1330,430,-52,-791,-752,13240,0
2,777,1748,512,260,-832,-800,13540,0
2,778,1874,120,328,-761,-697,13930,0
2,779,1760,1796,410,-725,-566,14154,0
3,780,304,454,7824,-462,-682,15072,0
3,781,-246,-388,7120,-333,-188,15135,0
3,782,-280,-18,5240,-293,126,15268,0
3,783,-360,268,5092,55,-92,15314,0
3,784,-234,490,5390,-107,-258,15380,0
3,785,-102,-702,5772,-130,-239,15455,0
3,786,14,-1092,4988,-135,14,15437,0
3,787,394,-102,4722,-180,247,15490,0
3,788,2,-954,4618,-196,242,15586,0
3,789,428,-470,4192,-375,411,15659,0
3,790,396,-6,4076,-499,521,15673,0
3,791,136,-1788,4054,-539,595,15617,0
3,792,-292,-1346,3062,-627,682,15573,0
3,793,-44,-862,3038,-600,482,15608,0
3,794,562,-956,3466,-424,-19,16011,0
3,795,904,212,3396,-493,308,16333,0
3,796,318,-168,3016,-583,610,16262,0
3,797,-664,468,2854,-856,761,16017,0
3,798,-1114,-458,2738,-616,371,16008,0
3,799,-1386,-714,3224,-719,-217,15964,0
3,800,228,-700,2578,-808,-929,16259,0
3,801,1062,-1358,3130,-837,-881,16543,0
3,802,1254,-1544,3304,-747,-273,16774,0
3,803,904,-1694,3512,-627,-27,16949,0
3,804,768,-1740,2934,-128,-47,16990,0
3,805,318,-1242,2854,141,290,16957,0
3,806,238,-1070,2578,295,459,16805,0
3,807,574,-1188,1736,303,377,16550,0
3,808,488,-562,1412,41,337,16167,0
3,809,46,-412,836,-141,-73,15849,0
3,810,-754,-1798,640,-29,-759,15850,0
3,811,-1330,-2574,122,91,-1261,16179,0
3,812,-970,-2216,-52,219,-1439,16848,0
3,813,-1184,-3706,-98,118,-1314,17956,0
3,814,260,-4018,-2612,483,-1614,19257,0
3,815,904,-2872,-2428,852,-1459,20156,0
3,816,226,-344,-1078,1283,-998,19716,0
3,817,-1366,1274,-178,935,-258,18386,0
3,818,-3188,2188,744,739,361,16581,0
3,819,-4372,2940,974,415,221,14913,0
3,820,-3684,2386,202,175,-545,13624,0
3,821,-1870,930,860,-10,-1166,12936,0
3,822,326,-494,674,-256,-1263,12611,0
3,823,1512,-1034,-64,29,-644,13035,0
3,824,1692,-1902,-778,234,-194,13751,0
3,825,982,-1994,-1436,397,-322,14739,0
3,826,544,-1982,-2496,500,-652,15753,0
3,827,-200,-2074,-3362,653,-992,16691,0
3,828,80,-1116,-3026,693,-1338,17186,0
3,829,-78,14,-1424,527,-1493,17153,0
3,830,-1006,60,-916,247,-1332,16639,0
3,831,-1804,904,720,43,-1407,15796,0
3,832,-1916,1736,1124,-95,-1305,14894,0
3,833,-1384,1438,894,-548,-1129,14265,0
3,834,-640,918,1378,-425,-938,13758,0
3,835,352,686,1586,-261,-535,13617,0
3,836,644,560,444,-276,-428,13767,0
3,837,1062,-618,352,-135,-564,14054,0
3,838,1826,-1268,478,82,-651,14321,0
3,839,2298,-1244,962,464,-552,14577,0
3,840,2684,-772,1458,967,-353,14938,0
3,841,2742,-596,1090,1013,0,15132,0
3,842,2008,814,1124,1046,300,15121,0
3,843,888,1078,1136,1012,710,15235,0
3,844,-202,1620,468,843,982,15121,0
3,845,-1004,2430,386,582,878,14898,0
3,846,-900,2906,-744,132,408,14740,0
3,847,-562,3390,-616,-13,-53,14556,0
3,848,-246,3518,548,-306,-292,14465,0
3,849,-382,2028,524,-551,-471,14556,0
3,850,-234,1726,502,-692,-646,14891,0
3,851,46,338,1920,-619,-713,15354,0
3,852,532,502,2046,-335,-419,16126,0
3,853,1206,476,1816,-251,-288,16747,0
3,854,892,676,1816,-87,-82,17456,0
3,855,80,1368,1366,-177,-123,17853,0
3,856,-652,1750,1482,-388,-454,18084,0
3,857,-1948,1092,2312,-503,-759,18019,0
3,858,-2940,1102,1654,-557,-1001,18042,0
3,859,-3154,1218,1620,-1244,-1524,17900,0
3,860,-2388,-318,1228,-1646,-2197,18191,0
3,861,-956,-526,940,-1563,-2794,18927,0
3,862,-516,-2018,524,-1251,-2704,19654,0
3,863,-426,-1774,882,-1351,-2650,20204,0
3,864,-260,-3186,1332,-1231,-2392,20577,0
3,865,194,-2942,1078,-621,-2270,20532,0
3,866,-212,-1128,2266,-445,-1937,20143,0
3,867,-1726,-274,2932,-1145,-1445,18905,0
3,868,-3358,1738,2762,-696,-1097,17509,0
3,869,-3708,836,3500,-1151,-1716,15636,0
3,870,-3696,710,3708,-1599,-2172,14784,0
3,871,-2424,-262,3420,-2134,-2569,14112,0
3,872,114,-2260,3234,-2137,-2777,14290,0
3,873,2652,-3276,2232,-2184,-2432,15144,0
3,874,3846,-3588,1112,-2081,-2250,15868,0
3,875,3574,-3278,294,-1815,-2400,16558,0
3,876,2854,-3046,1090,-1461,-2524,16951,0
3,877,1772,-2098,1804,-1229,-2818,16882,0
3,878,1410,-1754,1932,-1264,-3189,16568,0
3,879,1758,-1742,3420,-1077,-2792,16197,0
3,880,1996,-2158,4008,-653,-1637,15706,0
3,881,2234,-1324,2670,-316,-762,15240,0
3,882,1928,-1384,2186,-249,-219,14822,0
3,883,1772,-642,952,-292,32,14603,0
3,884,1592,16,-766,-273,-424,14462,0
3,885,1172,708,-1528,-643,-950,14239,0
3,886,1174,710,-340,-1260,-1296,14029,0
3,887,780,-30,-444,-1507,-1614,13989,0
3,888,792,-342,514,-1276,-1621,13916,0
3,889,678,-204,710,-1170,-1233,13923,0
3,890,754,-668,-52,-1184,-876,13835,0
3,891,600,-792,-260,-1235,-705,13816,0
3,892,588,-88,-328,-1190,-812,14091,0
3,893,958,-402,-328,-1084,-991,14454,0
3,894,1072,-758,-674,-922,-797,14783,0
3,895,1040,-100,-64,-995,-297,14951,0
3,896,306,-318,-64,-994,252,15045,0
3,897,-180,-344,-652,-874,297,14987,0
3,898,-192,882,-110,-923,311,14870,0
3,899,-88,1184,-318,-1056,122,14719,0
3,900,-688,696,-420,-1315,236,14389,0
3,901,-934,132,-686,-1318,32,14153,0
3,902,-384,-990,-410,-1268,-685,14237,0
3,903,812,-2158,-386,-1092,-893,14789,0
3,904,1546,-1820,1286,-802,-438,15515,0
3,905,1680,-2134,340,-469,272,16322,0
3,906,814,-1728,-698,-63,1028,16921,0
3,907,-404,340,-1344,191,1042,17192,0
3,908,-1692,50,-1886,104,430,17252,0
3,909,-1972,50,-2024,-49,-203,16947,0
3,910,-1736,442,-1216,-305,-626,16899,0
3,911,-1274,26,-952,-602,-554,16828,0
3,912,-1444,-516,-1770,-295,-442,16945,0
3,913,-460,-562,-1504,-386,-726,17037,0
3,914,-584,-1486,-2324,-251,-508,17607,0
3,915,-978,-2272,-3142,268,-370,18250,0
3,916,-606,-1324,-2566,634,-625,18873,0
3,917,-382,-1774,-2496,533,-680,19400,0
3,918,-314,-354,-4296,586,-894,20035,0
3,919,-572,-884,-4606,572,-1254,20357,0
3,920,-790,500,-2554,665,-1213,19951,0
3,921,-900,1472,-2254,698,-1204,19019,0
3,922,-1678,686,-3200,767,-938,18217,0
3,923,-2106,3056,-2404,585,-849,17389,0
3,924,-2400,2594,-2774,402,-1292,17015,0
3,925,-3188,1634,-2600,193,-1316,16461,0
3,926,-2908,2198,-2520,-3,-1754,16078,0
3,927,-1804,488,-3384,-446,-2336,15867,0
3,928,-754,-874,-3996,-488,-2841,15796,0
3,929,990,-1280,-2312,-769,-3010,15790,0
3,930,1940,-2860,-1736,-748,-3032,15690,0
3,931,2830,-2956,-1286,-69,-2622,15781,0
3,932,3246,-1868,340,258,-1715,15923,0
3,933,2064,-1728,652,413,-835,15817,0
3,934,1354,-1092,-202,474,-347,15394,0
3,935,1096,-666,-386,501,-531,14948,0
3,936,1050,-238,-52,498,-909,14266,0
3,937,2088,444,-214,451,-1163,13762,0
3,938,2344,-8,64,319,-918,13420,0
3,939,2494,270,-74,261,-551,13218,0
3,940,2220,2,86,327,-140,13104,0
3,941,1128,708,-802,450,142,13114,0
3,942,204,2016,-1886,242,188,13190,0
3,943,-666,916,-1354,31,-240,12949,0
3,944,-848,1540,-2254,-60,-719,12737,0
3,945,-572,1404,-1874,-339,-1123,12633,0
3,946,-216,-1028,-826,-384,-1475,12788,0
3,947,1240,-206,-710,-309,-1503,13561,0
3,948,1434,-1636,-122,-79,-1079,14300,0
3,949,1816,-250,628,6,-493,14775,0
3,950,1412,398,-156,226,98,15070,0
3,951,-350,396,-466,149,346,15308,0
3,952,-844,1646,-420,-171,187,15435,0
3,953,-854,1438,-6,-242,-168,15149,0
3,954,-596,1206,766,-238,-60,14582,0
3,955,-302,1622,664,-351,87,14239,0
3,956,-66,1034,998,-520,248,14173,0
3,957,214,200,824,-544,493,14496,0
3,958,68,-228,906,-233,508,15080,0
3,959,172,1010,606,-88,498,15842,0
3,960,56,650,-732,49,476,16718,0
3,961,-516,698,364,174,659,17458,0
3,962,-1510,1308,1056,-172,651,17784,0
3,963,-1930,1262,664,-388,57,18059,0
3,964,-1386,1412,1320,-356,-108,18304,0
3,965,-1220,2280,1644,-316,44,18491,0
3,966,-1260,2084,1644,-430,288,18390,0
3,967,-1780,2420,870,-503,439,18145,0
3,968,-1636,2706,524,-831,97,17981,0
3,969,-2020,1458,802,-1190,-244,17846,0
3,970,-2016,340,468,-1448,-536,18018,0
3,971,-1566,-122,432,-1597,-1063,18689,0
3,972,-576,-1292,594,-1704,-1867,19677,0
3,973,882,-734,432,-1535,-1939,20319,0
3,974,994,-988,2600,-890,-1431,20006,0
3,975,722,-1338,3326,-913,-805,19244,0
3,976,474,-1338,2774,-489,-352,18559,0
3,977,-584,-504,1194,2,-212,18350,0
3,978,-1080,1148,640,-217,-516,18149,0
3,979,-1162,1240,-398,-1313,-1540,17838,0
3,980,-814,72,-766,-1731,-2583,17501,0
3,981,-236,650,-86,-1874,-3231,17319,0
3,982,284,-18,1078,-1959,-3475,17000,0
3,983,544,-330,1470,-1989,-3125,16502,0
3,984,678,-758,1954,-1615,-2417,15951,0
3,985,-2,-540,2174,-1295,-1757,15538,0
3,986,564,-656,1804,-1385,-1588,14950,0
3,987,1106,-110,2208,-1258,-1659,14523,0
3,988,1456,-6,2934,-1147,-1524,14143,0
3,989,1412,-388,2370,-1148,-1347,13839,0
3,990,1770,-344,2370,-978,-1108,13584,0
3,991,1400,-18,2496,-1007,-842,13313,0
3,992,744,-102,2000,-961,-785,13162,0
3,993,1138,-644,1712,-1017,-915,13106,0
3,994,1524,-492,1574,-881,-1167,13034,0
3,995,2132,-1752,1724,-715,-1024,13062,0
3,996,1828,-1716,1320,-494,-835,13504,0
3,997,2268,-1762,802,-289,-605,14230,0
3,998,1648,-1648,282,-357,-362,14603,0
3,999,1050,-884,-306,-583,-180,14909,0
3,1000,462,-470,-928,-717,-516,14944,0
3,1001,-268,62,-374,-838,-1032,14803,0
3,1002,-248,280,364,-906,-1075,14515,0
3,1003,-336,40,720,-836,-720,14061,0
3,1004,126,340,940,-707,-236,13839,0
3,1005,318,52,594,-654,144,13888,0
3,1006,1048,-668,-64,-743,352,14027,0
3,1007,698,-424,-236,-648,314,14136,0
3,1008,622,-110,-514,-510,216,14537,0
3,1009,306,-18,-1262,-521,273,15191,0
3,1010,-550,-330,-1148,-454,537,15856,0
3,1011,-1546,-240,-1436,-412,639,16245,0
3,1012,-2050,-100,-2680,-506,434,16517,0
3,1013,-1964,522,-2658,-744,-46,16677,0
3,1014,-1768,270,-2220,-568,-633,16998,0
3,1015,-674,848,-1528,-702,-681,17603,0
3,1016,-92,-412,-882,-708,-261,17880,0
3,1017,-404,120,-652,-345,623,18015,0
3,1018,-2312,-194,-2474,-305,1069,17948,0
3,1019,-4050,-852,-3016,620,215,17880,0
3,1020,-3256,-712,-3130,599,-541,18026,0
3,1021,-2414,-378,-4330,-237,-804,18806,0
3,1022,-1318,-954,-5586,-89,-1833,19512,0
3,1023,136,-344,-5344,22,-2778,20264,0
3,1024,668,236,-2830,334,-2541,20457,0
3,1025,-350,1482,-1654,-61,-1324,19718,0
3,1026,-2038,2132,-2438,-49,-908,18502,0
3,1027,-3076,1726,-3466,-63,-1593,17365,0
3,1028,-3008,618,-2738,-255,-2294,16307,0
3,1029,-1634,-736,-2220,-172,-2955,15830,0
3,1030,-66,-734,-1528,-163,-2915,15933,0
3,1031,732,-2020,-1794,-198,-2697,16169,0
3,1032,1140,-2214,-2104,96,-2546,16824,0
3,1033,1332,-1682,-1746,359,-2368,17170,0
3,1034,858,-1416,-1804,514,-2119,17499,0
3,1035,-194,-564,-3442,381,-1810,17450,0
3,1036,-878,40,-2358,186,-1648,17133,0
3,1037,-1692,662,-1978,68,-1355,16647,0
3,1038,-1716,1574,-1666,-129,-1313,15961,0
3,1039,-1836,1518,-640,-670,-1312,14811,0
4,1040,-510,-806,1908,-550,-78,15941,0
4,1041,-474,-886,2670,-539,285,16068,0
4,1042,-452,-402,1862,-621,423,16145,0
4,1043,-666,118,1862,-659,776,16203,0
4,1044,-826,662,1758,-478,840,15858,0
4,1045,-832,618,1562,-285,927,15811,0
4,1046,-542,592,812,-411,903,15878,0
4,1047,-370,768,1758,-438,903,15763,0
4,1048,-498,-216,1412,-381,979,15805,0
4,1049,-90,246,1240,-203,1115,15966,0
4,1050,-12,-506,1504,-360,1225,15990,0
4,1051,48,108,2070,-350,1512,15965,0
4,1052,14,-700,640,-569,1870,15797,0
4,1053,248,-470,1194,-302,1802,15837,0
4,1054,506,-968,1102,-449,1763,15894,0
4,1055,792,-688,1010,-461,1536,16276,0
4,1056,730,2,802,-411,1365,17083,0
4,1057,-104,38,1654,-148,1604,17919,0
4,1058,-516,1496,1090,-41,1699,18045,0
4,1059,-1310,1054,1192,-383,1658,17844,0
4,1060,-1036,768,2012,-735,1142,17247,0
4,1061,-416,652,2324,-846,478,16983,0
4,1062,350,-310,2254,-966,493,17311,0
4,1063,676,-436,2242,-593,788,17889,0
4,1064,464,-1312,2462,-426,971,18383,0
4,1065,-190,212,1978,-227,1196,18767,0
4,1066,-1026,1124,2116,-528,1016,18518,0
4,1067,-1938,606,1574,-867,272,18206,0
4,1068,-1916,-206,1332,-1589,-1046,17925,0
4,1069,-924,-2112,1194,-1746,-2337,18317,0
4,1070,746,-2918,3212,-892,-2866,18960,0
4,1071,1430,-2678,3962,-391,-2220,19153,0
4,1072,1218,-2644,4250,-424,-1183,18377,0
4,1073,654,-1384,4122,-325,-639,17466,0
4,1074,136,-876,2762,-179,-559,16660,0
4,1075,-44,1206,2670,-8,-889,16046,0
4,1076,1174,2374,2738,-642,-1638,15221,0
4,1077,1938,1146,3880,-1590,-1761,14312,0
4,1078,2020,732,3166,-1871,-1624,13595,0
4,1079,2130,-240,3718,-2166,-1848,12954,0
4,1080,2526,-1372,4538,-2392,-1639,12910,0
4,1081,2854,-3114,3316,-2597,-1598,13308,0
4,1082,2570,-4110,2970,-1569,-1305,14434,0
4,1083,2468,-2250,2162,-706,-904,15279,0
4,1084,1914,-1592,1748,-123,-948,16003,0
4,1085,1262,-436,1124,-17,-1069,16296,0
4,1086,744,812,1794,-427,-1261,16356,0
4,1087,-34,118,1158,-1213,-1627,15668,0
4,1088,136,-898,606,-1492,-2020,14937,0
4,1089,644,-1324,1286,-1339,-1743,14731,0
4,1090,-104,-1360,1298,-1344,-1172,14807,0
4,1091,-34,-1198,720,-1162,-1160,14925,0
4,1092,-506,236,570,-1256,-1144,14856,0
4,1093,-576,466,928,-1448,-1075,14607,0
4,1094,-888,524,144,-1696,-970,14655,0
4,1095,-798,640,524,-1600,-914,14566,0
4,1096,-812,304,1010,-1537,-923,14397,0
4,1097,-688,720,790,-1471,-890,14014,0
4,1098,-122,-1092,1574,-1436,-860,13731,0
4,1099,70,-1866,2428,-1193,-494,13784,0
4,1100,848,-1728,1828,-841,66,14190,0
4,1101,724,-1798,1274,-385,900,15009,0
4,1102,-36,-748,386,-206,1246,15661,0
4,1103,-1228,-402,352,-75,1145,16103,0
4,1104,-2356,858,144,-328,832,16069,0
4,1105,-2444,1588,-156,-633,618,15679,0
4,1106,-2198,730,-110,-730,464,15254,0
4,1107,-1722,456,-374,-873,545,15103,0
4,1108,-654,418,-374,-753,507,14980,0
4,1109,-844,-192,-86,-1117,965,15110,0
4,1110,-1058,-1554,-398,-1226,870,15428,0
4,1111,-1038,-990,-374,-1573,654,15637,0
4,1112,-778,-1084,306,-1493,662,15418,0
4,1113,-608,-1614,-616,-2039,950,15631,0
4,1114,-496,-2238,40,-1492,1087,16236,0
4,1115,-358,-2168,52,-1157,1125,16858,0
4,1116,-530,-1904,-916,-1068,712,17649,0
4,1117,168,-1822,-654,-790,212,18436,0
4,1118,-34,-460,86,-48,205,19097,0
4,1119,-584,328,-352,40,735,19125,0
4,1120,-1238,364,-1228,-263,515,18158,0
4,1121,-1330,-402,-1770,-846,836,17681,0
4,1122,-2220,-840,-2866,-877,1285,17936,0
4,1123,-2784,-1556,-2900,-202,738,18829,0
4,1124,-2920,-356,-3880,-275,-72,19502,0
4,1125,-2298,-850,-4376,-465,-1429,20067,0
4,1126,-2084,-1034,-4284,-341,-2472,20782,0
4,1127,-904,-748,-3246,330,-3091,21414,0
4,1128,450,118,-1586,902,-2880,21121,0
4,1129,448,3134,-2312,556,-1905,19458,0
4,1130,70,3968,-2554,-286,-1671,16992,0
4,1131,-362,3054,-974,-616,-2352,15324,0
4,1132,12,1922,-1804,-777,-2862,14446,0
4,1133,1374,-516,-1378,-1098,-3366,14089,0
4,1134,2750,-910,-606,-422,-3227,14675,0
4,1135,2628,-1174,-594,306,-2641,15583,0
4,1136,2086,-252,-606,676,-1970,15761,0
4,1137,1610,96,-974,181,-1586,15326,0
4,1138,1490,-492,-1194,63,-1939,14601,0
4,1139,1906,-206,-962,19,-2231,13885,0
4,1140,1760,-942,-710,-38,-2029,13581,0
4,1141,1772,-1578,28,305,-1919,13716,0
4,1142,1600,-320,-952,240,-1652,14268,0
4,1143,1566,-182,272,105,-1581,14451,0
4,1144,1636,1044,652,236,-1420,14138,0
4,1145,710,1494,52,208,-1179,13513,0
4,1146,294,188,478,326,-742,12907,0
4,1147,-56,-32,490,322,-444,12531,0
4,1148,-314,-226,468,681,-273,12718,0
4,1149,-542,-1268,-6,832,-156,13375,0
4,1150,-258,-770,-6,668,71,13915,0
4,1151,-294,-448,-606,854,-51,14560,0
4,1152,-438,-884,-616,835,-161,15272,0
4,1153,-950,188,-306,992,107,15654,0
4,1154,-1272,108,-248,976,428,15826,0
4,1155,-1940,430,328,990,447,15720,0
4,1156,-1442,1854,824,675,95,15453,0
4,1157,-1824,1450,1240,420,74,15035,0
4,1158,-1782,662,1044,17,244,14303,0
4,1159,-788,270,2196,-217,405,14053,0
4,1160,352,-1000,2462,-374,854,14388,0
4,1161,798,-1556,2682,-535,1313,14713,0
4,1162,1218,-794,2520,-187,1649,15114,0
4,1163,882,-1104,2878,18,2027,15653,0
4,1164,498,-850,2474,218,2289,16109,0
4,1165,314,-216,2092,335,2573,16660,0
4,1166,-360,106,2000,794,2281,17032,0
4,1167,-382,756,2058,602,1675,17198,0
4,1168,1260,-320,3476,-207,468,17219,0
4,1169,2016,-1396,3016,380,841,17984,0
4,1170,1410,570,1736,804,1088,18447,0
4,1171,1366,652,1932,927,451,18958,0
4,1172,1600,338,1170,474,1305,18369,0
4,1173,1126,962,652,1104,2038,18131,0
4,1174,-200,2084,1102,1177,2720,17827,0
4,1175,-1524,1562,1136,826,2448,17530,0
4,1176,-1756,628,214,-495,1724,17799,0
4,1177,-724,-528,-570,-1453,592,18600,0
4,1178,1378,-1566,-536,-1371,-627,19824,0
4,1179,1590,-1348,-248,-537,-2161,21011,0
4,1180,2602,-8,766,-255,-2775,21477,0
4,1181,4038,1762,2128,-352,-2645,20078,0
4,1182,5414,3690,1470,-579,-2268,17908,0
4,1183,4272,1782,374,-1812,-1236,16013,0
4,1184,2728,-564,-6,-1893,-1960,14791,0
4,1185,2276,-102,-1482,-1412,-3010,14547,0
4,1186,2218,-1396,-1102,-1591,-3065,14977,0
4,1187,1230,-2028,-1896,-1065,-2996,15720,0
4,1188,386,-688,-2174,-658,-3344,16315,0
4,1189,-336,-514,-1436,-468,-3515,16453,0
4,1190,-640,988,-318,-621,-3484,16124,0
4,1191,-1632,2304,-28,-1153,-3257,15272,0
4,1192,-2390,2234,-156,-1649,-3049,14190,0
4,1193,-2424,882,1690,-2008,-2910,13222,0
4,1194,-1758,-506,2116,-2098,-2595,13084,0
4,1195,-618,-1196,1516,-1643,-2314,13240,0
4,1196,-92,-1268,2070,-1321,-1801,13406,0
4,1197,134,-1164,2876,-1038,-1227,13280,0
4,1198,450,-668,1700,-792,-863,12878,0
4,1199,370,-1084,1642,-556,-355,12628,0
4,1200,878,-1014,1056,-158,342,12901,0
4,1201,76,234,652,570,878,13737,0
4,1202,-1012,1924,-836,1060,992,14045,0
4,1203,-1622,3286,98,319,686,13727,0
4,1204,-1984,2592,-156,-433,183,12988,0
4,1205,-1644,1068,-364,-512,297,12801,0
4,1206,-960,-620,-514,-542,906,12933,0
4,1207,-698,-504,-570,-441,1109,13437,0
4,1208,-950,-1014,-1888,-529,994,13865,0
4,1209,-956,-920,-1746,-788,960,14587,0
4,1210,-1928,-366,-812,-437,673,15200,0
4,1211,-1782,1344,-478,-1528,862,14924,0
4,1212,-1724,1390,-132,-2059,1087,14794,0
4,1213,-1568,1170,-18,-1890,1895,14822,0
4,1214,-764,826,-836,-1794,2103,15013,0
4,1215,12,-714,-1448,-1418,2250,15100,0
4,1216,-324,-1658,-1252,-1282,2734,15540,0
4,1217,-854,-1636,-2196,-1064,2899,16193,0
4,1218,-1058,-1462,-2150,-875,2361,16669,0
4,1219,-1442,-792,-2000,-757,2372,17106,0
4,1220,-2446,-390,-1954,-1155,2329,17478,0
4,1221,-1964,-1210,-2646,-1322,1436,17949,0
4,1222,-2640,-298,-1954,-1316,878,19298,0
4,1223,-2276,-746,-2196,-1093,177,20299,0
4,1224,-1626,626,-2634,-651,148,20742,0
4,1225,-192,72,-2750,-688,109,20249,0
4,1226,1456,-2386,-1366,-673,929,19775,0
4,1227,-486,-2158,-2428,481,3218,21174,0
4,1228,-2582,-1510,-4434,1925,3115,21793,0
4,1229,-1468,416,-5128,1590,750,20176,0
4,1230,-1558,3088,-6890,847,-406,21452,0
4,1231,-554,1494,-8066,-1239,-2924,19900,0
4,1232,1940,2362,-8804,-2055,-5523,18607,0
4,1233,2414,-722,-6982,-2553,-6126,18456,0
4,1234,2786,-2560,-6890,-3044,-7568,17790,0
4,1235,3982,-1474,-4354,-1676,-7855,17550,0
4,1236,4396,338,-2092,-1139,-6935,16510,0
4,1237,2618,652,-374,-1012,-5369,15584,0
4,1238,1038,222,328,-103,-4467,14857,0
4,1239,-248,-356,1562,743,-3756,14519,0
4,1240,-1046,-874,1274,791,-3278,14678,0
4,1241,-1242,-1534,62,757,-2886,15685,0
4,1242,-372,-1036,248,612,-2147,16459,0
4,1243,272,-1636,328,1039,-927,17162,0
4,1244,506,-1972,-908,1525,-290,17084,0
4,1245,1680,-932,-340,1949,-152,15781,0
4,1246,2200,-1116,1262,1471,198,14538,0
4,1247,2460,-1508,478,1003,401,13702,0
4,1248,2188,-1046,306,686,43,12994,0
4,1249,2298,-1338,144,351,95,12531,0
4,1250,1794,-884,-202,-109,333,12471,0
4,1251,1658,-378,-548,293,45,12381,0
4,1252,960,294,-98,245,120,12514,0
4,1253,338,938,-974,238,307,12550,0
4,1254,-1374,478,-1112,503,678,12652,0
4,1255,-2534,-156,-628,266,553,12877,0
4,1256,-2786,-66,-940,174,207,13539,0
4,1257,-2242,52,-1008,65,-164,14366,0
4,1258,-2118,-18,-202,-160,-616,15039,0
4,1259,-1756,236,468,-33,-802,15596,0
4,1260,-1012,756,410,-13,-787,15813,0
4,1261,-652,536,1066,198,-227,15865,0
4,1262,-810,572,1724,339,450,15451,0
4,1263,-620,-1060,1228,153,909,14764,0
4,1264,182,-1300,1366,523,1501,14958,0
4,1265,958,-1718,1448,974,2129,15729,0
4,1266,1950,-968,110,1329,2682,16378,0
4,1267,1456,352,18,1725,3068,16627,0
4,1268,1432,950,444,1802,2959,16407,0
4,1269,790,2152,18,1560,2798,15953,0
4,1270,722,1240,156,1192,2603,15348,0
4,1271,392,2360,272,639,2289,15356,0
4,1272,-46,1298,74,164,2166,16118,0
4,1273,-386,164,236,-18,1669,16821,0
4,1274,-520,-170,1690,71,1334,17664,0
4,1275,80,420,1102,191,1131,18748,0
4,1276,1452,-436,362,398,675,19635,0
4,1277,2626,350,570,147,743,19944,0
4,1278,2670,592,606,226,1127,19627,0
4,1279,2076,548,882,551,1330,19327,0
4,1280,1316,558,906,719,1477,19446,0
4,1281,78,950,560,557,1648,19733,0
4,1282,-1182,1934,156,340,782,19989,0
4,1283,-1906,2348,-456,-351,-247,20056,0
4,1284,-1512,1286,-1726,-1315,-1726,19364,0
4,1285,-20,1784,-3476,-1330,-3357,18727,0
4,1286,1174,1034,-2980,-1460,-4706,18370,0
4,1287,3238,260,-6,-1486,-5536,17000,0
4,1288,3618,674,444,-1458,-4330,15372,0
4,1289,2404,-134,132,-1582,-2942,14069,0
4,1290,768,-52,-698,-1695,-2465,13357,0
4,1291,-374,-344,-2058,-1642,-2585,13473,0
4,1292,-1738,-332,-2774,-1884,-2835,14113,0
4,1293,-2108,882,-3292,-2075,-3600,14786,0
4,1294,-2692,306,-2970,-2343,-4101,15447,0
4,1295,-2876,754,-2324,-2203,-3926,15513,0
4,1296,-1860,372,-778,-2075,-3571,14846,0
4,1297,-544,-1754,962,-2171,-3076,14152,0
4,1298,144,-2898,882,-1771,-1755,14498,0
4,1299,-48,-3140,1608,-883,-447,15486,0
5,1300,-2672,-136,4018,1987,-531,18827,0
5,1301,-2762,-206,2924,2113,-195,18734,0
5,1302,-3294,-690,1802,2244,-313,18418,0
5,1303,-3270,476,224,2050,-802,18180,0
5,1304,-2302,1286,-1724,1658,-2675,17427,0
5,1305,-1262,1828,-2634,820,-3670,16835,0
5,1306,-518,2302,-2012,-243,-4609,16246,0
5,1307,900,2326,-1058,-1341,-5502,15851,0
5,1308,1700,2082,904,-1843,-5554,15222,0
5,1309,2062,2256,1586,-1735,-4943,14303,0
5,1310,1970,1714,1920,-2195,-3786,13575,0
5,1311,1130,270,1102,-2757,-2648,13040,0
5,1312,328,374,490,-2599,-2306,13098,0
5,1313,-1002,212,640,-2249,-2266,13261,0
5,1314,-1904,316,-224,-2249,-2248,13668,0
5,1315,-2748,-168,628,-1908,-1839,14361,0
5,1316,-1964,-574,754,-1283,-1242,15337,0
5,1317,-972,-182,50,-773,-997,15932,0
5,1318,516,430,502,-107,-215,16074,0
5,1319,440,650,6,179,747,15823,0
5,1320,944,1378,-1458,511,613,15386,0
5,1321,1488,1852,-2104,99,226,14459,0
5,1322,1288,628,-2150,-573,-79,13888,0
5,1323,688,1540,-2474,-773,-602,13775,0
5,1324,634,572,-2358,-1023,-1171,14002,0
5,1325,476,-6,-1102,-1302,-993,14206,0
5,1326,-180,-66,-1504,-1498,-359,14312,0
5,1327,-956,468,-1032,-1183,174,14529,0
5,1328,-1612,-332,-582,-924,509,14651,0
5,1329,-1734,316,-778,-1112,472,14876,0
5,1330,-1930,-620,-1204,-1450,277,15089,0
5,1331,-1556,-620,-582,-1385,17,15726,0
5,1332,-702,-470,-1090,-1510,70,15764,0
5,1333,-384,280,-928,-1193,333,15949,0
5,1334,-78,-366,478,-1194,369,15634,0
5,1335,664,-124,398,-1326,431,15026,0
5,1336,744,-1026,514,-1260,682,14422,0
5,1337,812,-1452,132,-945,1014,14523,0
5,1338,656,-1786,-6,-821,1290,14782,0
5,1339,1376,-2400,-144,-597,1214,15099,0
5,1340,1230,-988,-882,-277,1513,15384,0
5,1341,846,-1026,-928,-161,1841,15761,0
5,1342,768,-666,-1712,-46,1839,15909,0
5,1343,294,314,-1482,-114,1517,15820,0
5,1344,-700,-378,-1482,-716,1216,15350,0
5,1345,-1272,-584,-1700,-911,633,15106,0
5,1346,-1660,-680,-814,-605,398,15983,0
5,1347,-1632,-642,-270,-294,603,16877,0
5,1348,-1636,-170,-2058,-342,1173,17648,0
5,1349,-1262,-772,-2162,-448,1299,18171,0
5,1350,-1374,-1116,-3800,-618,1418,18902,0
5,1351,-1296,-448,-2958,-206,1008,19450,0
5,1352,282,-206,-3154,-16,40,19576,0
5,1353,1464,592,-3062,-674,818,19499,0
5,1354,-844,1356,-2324,-509,1736,19643,0
5,1355,-1880,-896,-2992,-286,1544,19579,0
5,1356,-3020,-1624,-3858,1434,1091,19796,0
5,1357,-3632,-1314,-4688,1934,62,21128,0
5,1358,-2908,106,-6636,1739,-1747,21714,0
5,1359,-2176,1978,-7720,959,-3515,21361,0
5,1360,-2076,3166,-9048,-334,-5303,20275,0
5,1361,-384,3700,-9058,-931,-8435,18463,0
5,1362,2162,3250,-7882,-1986,-11088,16513,0
5,1363,4872,2674,-3418,-2972,-12026,15222,0
5,1364,6158,-76,848,-3542,-11107,14147,0
5,1365,6966,-2562,3868,-2658,-8853,13352,0
5,1366,6334,-3070,5898,-1260,-5448,13465,0
5,1367,3990,-3926,5726,1027,-2198,14137,0
5,1368,640,-2008,3812,2102,471,15162,0
5,1369,-1970,-296,1840,3233,1490,16525,0
5,1370,-2196,410,318,2885,983,17304,0
5,1371,-1366,1032,-1852,2150,-194,17447,0
5,1372,2,352,-1158,1529,-1342,17094,0
5,1373,1780,-818,340,963,-2198,16288,0
5,1374,3778,-1544,802,731,-2556,15041,0
5,1375,4408,-1534,1458,-288,-2328,13750,0
5,1376,4588,-1036,2554,-59,-2446,12736,0
5,1377,3956,-1708,1978,-457,-1737,12173,0
5,1378,3450,-1776,2416,-261,-1706,11953,0
5,1379,5434,-3844,2474,-744,-3194,10698,0
5,1380,3492,-2238,2450,-275,777,12530,0
5,1381,2268,-1786,3004,614,1537,13082,0
5,1382,674,-1084,2404,1093,1943,13505,0
5,1383,-730,-388,2474,1400,2328,13989,0
5,1384,-1770,1770,2196,1553,2549,14362,0
5,1385,-2652,442,1470,1360,2429,14383,0
5,1386,-2332,282,1862,1028,2112,14733,0
5,1387,-1128,96,1494,1329,1207,14898,0
5,1388,214,-956,1378,1378,704,14942,0
5,1389,238,-434,2196,1177,1090,15152,0
5,1390,236,-216,1112,1613,1113,15357,0
5,1391,2060,-968,570,1569,-1,14888,0
5,1392,2252,72,1124,1604,1198,14851,0
5,1393,2006,-66,468,1752,1886,14698,0
5,1394,1702,-90,132,1340,2136,14391,0
5,1395,1374,754,-54,1419,2466,14383,0
5,1396,1058,24,108,1005,2633,14875,0
5,1397,596,36,-272,1310,2596,15045,0
5,1398,496,846,-260,1088,2266,15097,0
5,1399,200,534,744,711,1813,15368,0
5,1400,-24,396,202,747,1706,15683,0
5,1401,-632,626,560,752,1972,16073,0
5,1402,-1512,-494,1156,933,1891,16561,0
5,1403,-1772,-298,1136,864,1709,17413,0
5,1404,-1466,-378,432,1336,955,18249,0
5,1405,-32,364,640,1496,280,19172,0
5,1406,1772,-238,1066,1349,787,19576,0
5,1407,1950,-852,1436,1647,2276,19257,0
5,1408,214,-412,1724,2878,5147,19765,0
5,1409,-2290,1516,-536,3583,6782,20242,0
5,1410,-4508,2698,-3512,3542,6292,20380,0
5,1411,-4828,2222,-5126,2905,3591,20456,0
5,1412,-5222,2554,-3018,1948,1882,20789,0
5,1413,-6044,5202,-3892,1168,-1081,20704,0
5,1414,-4826,6774,-6152,1755,-3285,21149,0
5,1415,-1670,5214,-6752,-1761,-7413,18039,0
5,1416,-2334,3296,-6474,-2525,-7318,17350,0
5,1417,1580,-76,-3258,-3284,-12381,14153,0
5,1418,2118,-1326,-398,-2601,-7361,14344,0
5,1419,1118,-3208,894,-1851,-7229,13651,0
5,1420,-44,-884,698,-575,-4780,13507,0
5,1421,-2118,-110,52,-440,-3534,13061,0
5,1422,-3912,778,-1608,-1690,-2834,13474,0
5,1423,-5646,-42,-1758,-1975,-3089,14730,0
5,1424,-5356,1262,-282,-1821,-3940,15887,0
5,1425,-4240,1436,904,-2069,-4137,16515,0
5,1426,-2276,-64,1736,-2241,-3737,16319,0
5,1427,110,-1606,3532,-1627,-2974,15962,0
5,1428,1626,-2896,3672,-633,-1429,15993,0
5,1429,2458,-2724,2854,156,-363,15197,0
5,1430,3346,-2100,2012,214,292,13923,0
5,1431,2606,-2156,1736,-221,919,12725,0
5,1432,1172,-1834,248,-236,1035,12225,0
5,1433,148,-1450,-882,209,598,12562,0
5,1434,-632,-632,-168,-31,248,12772,0
5,1435,-1080,120,-616,46,-6,13028,0
5,1436,-1600,-228,-628,-163,-454,13672,0
5,1437,-1206,512,-1056,-222,-704,13846,0
5,1438,-1488,-794,-870,-611,-697,14109,0
5,1439,-1502,-1084,-870,-589,-780,14509,0
5,1440,-1726,-470,-1402,-732,-748,14908,0
5,1441,-1432,-1696,-732,-770,-943,15291,0
5,1442,690,-1196,-1770,-663,-1246,15355,0
5,1443,-868,-1268,-1378,-978,559,15957,0
5,1444,-1806,-1292,-1692,-302,516,16275,0
5,1445,-950,616,-2830,-249,-598,16058,0
5,1446,-14,164,-2092,-868,-975,15678,0
5,1447,904,-272,-1436,-1420,-481,15081,0
5,1448,1508,-1326,-812,-1377,-186,14570,0
5,1449,1948,-2586,-1182,-645,422,14654,0
5,1450,2460,-2988,-1102,-131,1087,15042,0
5,1451,2264,-4146,-894,222,1627,15450,0
5,1452,1906,-2586,-1746,688,1837,15918,0
5,1453,722,-1996,-1920,1082,1943,16422,0
5,1454,482,-968,-1586,1331,1821,16489,0
5,1455,-416,-100,-3038,984,2033,16523,0
5,1456,-780,-1094,-3108,493,1464,16412,0
5,1457,-168,-1866,-2532,161,830,17016,0
5,1458,200,-3070,-3718,-321,942,18287,0
5,1459,820,-3140,-3410,30,870,19205,0
5,1460,228,-2434,-4042,-350,1159,19837,0
5,1461,-1352,1078,-6716,-250,1460,20158,0
5,1462,-1626,580,-6820,-139,2369,19137,0
5,1463,-2818,-470,-5840,1684,3790,20648,0
5,1464,-5342,710,-5680,1333,1587,20643,0
5,1465,-5290,1158,-6176,381,238,20500,0
5,1466,-4298,3146,-7512,422,-2069,20611,0
5,1467,-3406,3758,-7204,-290,-4318,20455,0
5,1468,-1264,1378,-8342,-1366,-6601,19302,0
5,1469,-1026,6416,-7594,-942,-7736,19571,0
5,1470,-654,6462,-5932,-1818,-8862,17595,0
5,1471,1218,6866,-3396,-2947,-10641,14746,0
5,1472,4918,3414,-502,-3286,-10534,12565,0
5,1473,5038,-864,2254,-3234,-7871,12329,0
5,1474,4318,-1072,2796,-659,-5818,13200,0
5,1475,2154,-724,2288,346,-3742,14722,0
5,1476,-1600,730,2392,1227,-2064,16602,0
5,1477,-2944,1516,2600,1437,-2069,17554,0
5,1478,-1590,164,1896,1123,-2348,17418,0
5,1479,1038,766,1240,1675,-1151,18394,0
5,1480,2558,372,1228,1956,-260,18023,0
5,1481,3518,314,420,1961,-144,16691,0
5,1482,4320,1068,894,1394,-547,15378,0
5,1483,3744,-192,2128,442,-1335,14007,0
5,1484,2618,2212,2278,108,-1723,13084,0
5,1485,1542,800,3108,-941,-1614,12392,0
5,1486,1860,396,3672,-1266,-2043,11222,0
5,1487,5062,928,3154,-47,-2162,10626,0
5,1488,3192,-2318,4054,-1146,-1901,10881,0
5,1489,1036,-1892,4306,-696,-203,11608,0
5,1490,126,-2006,4146,-177,-521,12284,0
5,1491,-1274,-678,3868,-233,-506,13157,0
5,1492,-2660,-8,4180,-235,-163,13702,0
5,1493,-3810,72,4838,-292,-284,13822,0
5,1494,-3574,-298,4456,-422,-559,13970,0
5,1495,-2560,-1210,4976,-157,-834,14677,0
5,1496,-2040,-1916,5806,110,-879,15065,0
5,1497,-3110,-260,5472,306,339,15908,0
5,1498,-1060,-1360,5622,1299,302,16277,0
5,1499,-78,-956,4826,1562,801,16445,0
5,1500,2402,-2030,4238,901,-174,15489,0
5,1501,494,-310,3558,1543,2574,16516,0
5,1502,-1556,1032,2900,586,1931,15301,0
5,1503,780,-884,3120,-27,52,13640,0
5,1504,810,-252,3120,-290,949,14229,0
5,1505,-70,720,3488,-304,1785,14984,0
5,1506,-1600,96,4560,-404,1346,15559,0
5,1507,-440,-216,5426,508,1054,16780,0
5,1508,56,-714,5356,-51,1320,17145,0
5,1509,316,-828,4630,-518,1585,17671,0
5,1510,272,-746,4088,106,1592,18625,0
5,1511,338,570,4008,777,1109,19692,0
5,1512,792,1264,3292,724,635,19829,0
5,1513,1926,1424,3408,794,-45,19428,0
5,1514,3268,1090,3200,685,291,18765,0
5,1515,3944,396,3476,762,964,18502,0
5,1516,4442,-286,4492,1079,2161,18794,0
5,1517,3470,-910,3972,992,3850,19331,0
5,1518,1250,-322,1756,1425,5112,20029,0
5,1519,-1512,1632,-86,1956,3873,21006,0
5,1520,-4068,3956,-1562,1379,1382,21456,0
5,1521,-4534,4116,-2624,-349,-1756,20954,0
5,1522,-3698,6312,-3270,-302,-4490,20478,0
5,1523,-2638,4890,-2796,-1917,-7449,18703,0
5,1524,734,3794,-398,-2441,-9366,16554,0
5,1525,7280,1076,1548,-1954,-9866,13745,0
5,1526,5172,-1476,2554,-2384,-5225,13283,0
5,1527,3324,-2492,2600,-1455,-4314,12376,0
5,1528,-552,-424,906,-633,-2742,12896,0
5,1529,-3674,2396,-606,-765,-1790,13434,0
5,1530,-5886,3528,-492,-1768,-4136,13494,0
5,1531,-6722,2892,-444,-2857,-4813,13297,0
5,1532,-5896,778,860,-3116,-5392,13314,0
5,1533,-3234,-1890,2682,-2638,-5679,13602,0
5,1534,-674,-3138,4618,-1929,-4361,14717,0
5,1535,530,-3568,4192,-665,-2206,15849,0
5,1536,2218,-3926,4502,164,-1025,15935,0
5,1537,2198,-4400,4330,872,710,16032,0
5,1538,1298,-4212,2796,1011,2165,15611,0
5,1539,1170,-3012,1816,1154,2419,14779,0
5,1540,1870,-1822,18,1272,1848,14038,0
5,1541,2354,-736,-1228,543,1083,13664,0
5,1542,2076,-654,-1598,143,403,13772,0
5,1543,1858,38,-882,-194,-292,13646,0
5,1544,2162,938,-1436,-902,-784,13509,0
5,1545,1420,-436,-2220,-1399,-798,13265,0
5,1546,1442,-1626,-1228,-1652,-942,13677,0
5,1547,554,-1128,-1424,-1547,-833,14585,0
5,1548,-530,-1764,-1494,-1236,-673,15288,0
5,1549,-1288,-886,-2036,-1523,-802,15256,0
5,1550,-792,-1094,-1228,-1351,-1267,15408,0
5,1551,518,-1442,-790,-1183,-1091,15479,0
5,1552,460,-2030,-628,-547,265,15863,0
5,1553,1204,-206,84,-95,420,15944,0
5,1554,1264,-826,-1032,-350,1228,15664,0
5,1555,4732,-4112,-930,-1578,-243,13696,0
5,1556,3584,-1452,-1620,-89,3040,14988,0
5,1557,3380,-3304,-1392,-300,3416,14331,0
5,1558,2862,-2608,-2174,478,3484,15253,0
5,1559,2750,-1442,-2658,370,3803,16213,0
6,1560,-514,-510,3106,382,1436,18600,0
6,1561,40,12,3648,196,448,18258,0
6,1562,-356,290,3360,-225,345,18060,0
6,1563,-264,-404,2782,-460,277,17843,0
6,1564,-288,-602,3844,-132,437,17892,0
6,1565,-524,-854,3348,-52,499,17886,0
6,1566,-696,-266,2644,113,86,18137,0
6,1567,-558,-474,3072,98,-285,18255,0
6,1568,50,-1284,3428,-51,-622,17919,0
6,1569,130,-1296,3532,493,-823,17742,0
6,1570,694,-1802,3428,968,-963,17591,0
6,1571,1414,-786,3140,1388,-1426,17095,0
6,1572,3566,-960,1446,1109,-2206,15830,0
6,1573,3950,-1214,684,998,-1889,15240,0
6,1574,4920,34,672,572,-2296,14314,0
6,1575,4156,232,326,-70,-1802,13665,0
6,1576,2430,-648,-722,-307,-1596,13196,0
6,1577,1956,994,-780,-420,-1853,13044,0
6,1578,1052,322,-1218,-1164,-1697,13100,0
6,1579,332,982,-2210,-1448,-1817,13201,0
6,1580,-412,1258,-2418,-1939,-1751,13670,0
6,1581,-1078,646,-2106,-1984,-2163,14260,0
6,1582,-1948,-94,-1506,-2195,-2339,14897,0
6,1583,-1900,-382,-226,-2158,-2418,15545,0
6,1584,-2272,-140,62,-2045,-2011,16116,0
6,1585,-1246,-810,1364,-1669,-1931,16173,0
6,1586,-344,-1342,1352,-928,-925,16380,0
6,1587,402,-622,776,-224,-32,16462,0
6,1588,840,-590,418,126,243,16045,0
6,1589,602,22,-504,55,608,15575,0
6,1590,120,-368,-112,117,472,15309,0
6,1591,-838,-322,-422,-168,468,15065,0
6,1592,-1120,902,-712,-423,436,14809,0
6,1593,-1248,102,-734,-578,323,14704,0
6,1594,-1248,692,-1726,-899,329,14591,0
6,1595,-1278,70,-2002,-1365,95,14451,0
6,1596,-1508,-128,-2084,-1666,-206,14495,0
6,1597,-954,10,-1692,-1689,-152,14967,0
6,1598,-1054,-336,-468,-1612,-399,15267,0
6,1599,-1370,380,-262,-1412,-141,15501,0
6,1600,-772,-428,62,-1449,21,15579,0
6,1601,-390,-706,-76,-1027,390,15448,0
6,1602,-602,-646,280,-763,1071,15141,0
6,1603,-110,-1006,-954,-356,1514,15359,0
6,1604,152,-1098,-1150,-10,2067,15627,0
6,1605,-446,-1030,-1656,-1,2377,15782,0
6,1606,-898,184,-2176,-214,2101,15868,0
6,1607,-842,114,-2188,-686,1415,15891,0
6,1608,-820,92,-1506,-932,855,15772,0
6,1609,-152,-152,-2094,-1401,998,15448,0
6,1610,-290,-1260,-1520,-1445,1063,15264,0
6,1611,-154,-416,-1322,-1497,1052,15241,0
6,1612,-672,-1872,-1646,-1650,1224,15499,0
6,1613,-832,-1122,-1668,-1352,1245,16252,0
6,1614,-1046,-614,-1748,-1155,1322,17188,0
6,1615,-1046,-440,-1692,-821,1608,18072,0
6,1616,-378,-24,-2326,-400,1290,18573,0
6,1617,502,138,-2406,-510,1225,18881,0
6,1618,938,-614,-1530,-502,1183,18993,0
6,1619,648,-140,-2464,-564,1590,19050,0
6,1620,254,-1134,-2636,-369,1611,19084,0
6,1621,-254,-648,-2948,-323,1784,18860,0
6,1622,-492,-510,-3664,236,1736,18866,0
6,1623,-1102,-798,-4102,899,1309,19554,0
6,1624,-2148,276,-4158,1166,1097,19984,0
6,1625,-1980,762,-4874,907,-44,19824,0
6,1626,-2048,842,-5634,469,-1276,19498,0
6,1627,-1562,1340,-5392,-179,-2506,19088,0
6,1628,186,854,-5750,-748,-3946,18297,0
6,1629,826,-128,-5900,-1293,-4617,17772,0
6,1630,1682,518,-4794,-1413,-5663,17124,0
6,1631,1616,80,-3778,-1629,-6175,16188,0
6,1632,1592,796,-2452,-1623,-6219,15350,0
6,1633,714,462,-734,-1112,-5999,14998,0
6,1634,-210,716,200,-782,-5586,14982,0
6,1635,-696,1096,1792,-556,-4918,14934,0
6,1636,-874,-438,2598,292,-4278,15023,0
6,1637,-426,-382,3474,930,-3035,15405,0
6,1638,276,-808,2506,1935,-1679,16285,0
6,1639,916,-556,2274,2808,-792,16840,0
6,1640,1122,600,1780,2843,50,16780,0
6,1641,504,324,2102,2683,334,16259,0
6,1642,2054,518,984,1725,-1946,14387,0
6,1643,904,-960,1674,1039,417,14135,0
6,1644,1074,-1272,2034,1021,-1518,13606,0
6,1645,578,-718,2034,596,-754,13824,0
6,1646,116,-12,1330,463,-958,13902,0
6,1647,-54,-152,1930,425,-1345,13649,0
6,1648,-638,-602,1884,522,-856,14058,0
6,1649,-468,-1040,1630,674,-1128,14556,0
6,1650,-832,138,1192,479,-429,14947,0
6,1651,-108,-278,2080,400,-1218,14715,0
6,1652,-300,-1272,1838,112,-528,14558,0
6,1653,-54,-1342,2552,410,-530,14596,0
6,1654,296,-1006,2690,919,240,15027,0
6,1655,-210,-786,1538,1065,629,15273,0
6,1656,-996,-196,1238,1012,493,15282,0
6,1657,-1552,-960,1918,742,-218,15170,0
6,1658,-956,-94,1860,603,-485,15340,0
6,1659,-312,-348,2206,643,-272,15273,0
6,1660,60,172,2586,846,-42,14944,0
6,1661,354,276,2090,1194,508,14744,0
6,1662,386,-810,2090,1299,1172,14530,0
6,1663,344,-718,1064,1521,1584,14329,0
6,1664,318,-464,684,1492,2221,14593,0
6,1665,-626,102,-272,1299,2130,14791,0
6,1666,-922,784,430,1013,1793,15188,0
6,1667,-998,602,476,631,1332,15721,0
6,1668,-1112,160,326,466,1003,16478,0
6,1669,-470,484,834,461,696,16918,0
6,1670,252,-660,1492,481,571,17163,0
6,1671,860,670,810,548,650,17383,0
6,1672,626,472,718,537,666,17417,0
6,1673,400,-162,914,362,470,17387,0
6,1674,634,484,1422,234,186,17452,0
6,1675,330,912,2216,323,90,17888,0
6,1676,668,-336,3092,834,367,18894,0
6,1677,1334,-452,2760,1229,1318,19215,0
6,1678,2268,-198,2042,1878,2868,19572,0
6,1679,2054,-636,1572,2382,4174,19768,0
6,1680,1908,-116,246,2713,4986,19904,0
6,1681,398,276,-2384,2327,5302,20180,0
6,1682,-2038,970,-1414,1740,4241,20984,0
6,1683,-3740,1848,-4828,1474,2467,21830,0
6,1684,-4540,2842,-5888,1382,-324,22767,0
6,1685,-4596,4308,-6604,154,-3393,22925,0
6,1686,-2816,5244,-6754,-1389,-6771,21389,0
6,1687,174,3384,-3974,-3166,-9070,18644,0
6,1688,3510,658,-492,-3752,-9554,15669,0
6,1689,5944,-2220,72,-3002,-8135,13265,0
6,1690,7974,-3318,-42,-1444,-5527,11287,0
6,1691,5662,-3444,-596,-236,-2456,11018,0
6,1692,3532,-3606,-954,1198,-2169,11228,0
6,1693,826,-324,-2650,913,-2464,11759,0
6,1694,-1272,1108,-2536,44,-2256,12633,0
6,1695,-4100,2126,-954,-901,-3468,13009,0
6,1696,-4538,762,326,-1358,-4113,12987,0
6,1697,-3480,-902,1296,-1755,-3999,13601,0
6,1698,-1092,-1654,1962,-1385,-3151,14198,0
6,1699,782,-1838,2216,-401,-1708,14763,0
6,1700,12,-1872,1500,635,-267,15418,0
6,1701,-492,-1248,108,1105,291,15796,0
6,1702,-1068,-544,72,1029,96,15987,0
6,1703,-1564,-382,-826,853,-405,15835,0
6,1704,-1192,-1098,-66,543,-962,15565,0
6,1705,-728,-348,-434,284,-1082,15925,0
6,1706,-278,-24,-596,54,-1084,16119,0
6,1707,-122,-868,474,-324,-1215,15550,0
6,1708,128,-728,938,-657,-1326,14859,0
6,1709,510,-752,754,-845,-956,14376,0
6,1710,906,-1446,200,-899,-787,13836,0
6,1711,848,-1492,822,-1087,-568,13633,0
6,1712,522,-2162,408,-946,356,13811,0
6,1713,-482,-1712,532,-631,187,14562,0
6,1714,-244,-856,372,-361,602,15161,0
6,1715,-1370,-960,396,-75,1485,15752,0
6,1716,-764,-880,-954,85,1243,15574,0
6,1717,-110,-822,-434,191,1471,15392,0
6,1718,-166,-1642,512,41,1586,15281,0
6,1719,704,-1468,-1230,18,1748,15115,0
6,1720,36,-1376,-1486,-134,2027,15262,0
6,1721,534,-1376,-1104,-151,1757,15070,0
6,1722,228,-1030,-1668,-116,1870,15161,0
6,1723,-560,-1134,-1910,-153,1654,15498,0
6,1724,-832,172,-2130,-515,1119,15584,0
6,1725,-1080,-382,-2386,-909,512,15690,0
6,1726,-616,-1318,-1832,-1077,49,16253,0
6,1727,-234,-394,-1140,-710,483,17124,0
6,1728,-278,-1480,-1992,-219,1130,17835,0
6,1729,-438,-532,-2074,155,1489,18301,0
6,1730,-436,-210,-2948,1,1309,18747,0
6,1731,816,-94,-2338,-407,567,18984,0
6,1732,2166,-740,-2488,-962,462,19202,0
6,1733,2820,-1482,-1566,-1187,1075,18773,0
6,1734,2608,-1584,-250,-1054,1902,18435,0
6,1735,2144,-1364,-436,142,2670,18864,0
6,1736,1108,-1908,-2486,1558,3460,20325,0
6,1737,-1666,-36,-3132,3012,3541,21823,0
6,1738,-2474,2010,-4966,3165,1459,21751,0
6,1739,-1746,3188,-6502,1960,-1221,20853,0
6,1740,-66,3500,-6964,932,-3806,19693,0
6,1741,1164,2114,-6236,76,-5099,18530,0
6,1742,2822,1444,-4932,-912,-6279,16727,0
6,1743,4424,-890,-3076,-1326,-6678,14630,0
6,1744,5190,-2392,-1092,-969,-6176,13399,0
6,1745,3520,-1758,176,-539,-5134,13198,0
6,1746,1018,-2624,800,232,-4334,13344,0
6,1747,-740,-868,1558,832,-3621,13948,0
6,1748,-2162,-162,2022,1955,-2512,15159,0
6,1749,-3222,-220,1696,2830,-1393,16389,0
6,1750,-3220,-302,1376,4320,-320,18242,0
6,1751,-2850,160,1086,4780,656,19356,0
6,1752,-1250,-674,60,4333,717,19434,0
6,1753,386,-972,-422,3684,679,18580,0
6,1754,1120,-614,-468,2934,407,17340,0
6,1755,1422,-672,-518,2290,81,15821,0
6,1756,1288,-786,-1288,1681,-386,14389,0
6,1757,3282,-174,-1244,796,-2405,12419,0
6,1758,2616,-1040,-806,647,395,12457,0
6,1759,1062,-1260,-366,906,-968,12243,0
6,1760,-56,-510,-206,742,-533,11612,0
6,1761,-900,-256,602,202,-604,11614,0
6,1762,-1136,-70,-42,352,-397,11838,0
6,1763,-2204,-452,130,117,64,12345,0
6,1764,-2082,508,-134,127,-596,12531,0
6,1765,-1600,206,464,-470,-859,12764,0
6,1766,-1892,-1818,1316,-410,-970,13453,0
6,1767,-1690,-1298,2054,-53,-155,14626,0
6,1768,-2376,-1596,2298,861,471,16023,0
6,1769,-2940,-140,1686,1399,630,16725,0
6,1770,-2420,588,1952,1336,256,16779,0
6,1771,-1002,-602,2284,1056,41,16503,0
6,1772,-426,-474,2088,1236,349,16283,0
6,1773,-132,-394,2138,1518,730,15942,0
6,1774,270,66,2874,1544,1206,15385,0
6,1775,634,114,2538,1558,1411,14966,0
6,1776,846,-290,2942,1550,1595,14712,0
6,1777,714,-786,2876,1692,2312,14599,0
6,1778,92,-1168,2482,1878,2596,14927,0
6,1779,-946,-464,1904,2025,2828,15649,0
6,1780,-2116,-210,2206,1922,2906,16152,0
6,1781,-2714,-48,970,1830,2360,17036,0
6,1782,-2420,692,154,1478,1517,18153,0
6,1783,-1634,992,198,1142,473,18758,0
6,1784,-618,1236,1512,647,-872,18935,0
6,1785,666,172,2078,379,-1212,18922,0
6,1786,1928,-454,2874,973,-124,18647,0
6,1787,2844,-116,4352,1946,1343,18395,0
6,1788,2616,-740,3172,2392,3000,18280,0
6,1789,1332,-326,2584,2773,4093,18434,0
6,1790,-382,-128,2516,2760,4887,18844,0
6,1791,-2050,958,762,2474,4882,19529,0
6,1792,-3922,1824,-390,2080,4308,20787,0
6,1793,-4170,3986,-1440,2060,2477,22340,0
6,1794,-4722,4818,-3584,1557,473,22909,0
6,1795,-4350,5510,-4622,655,-2692,22465,0
6,1796,-1960,5602,-4576,-1106,-6165,21378,0
6,1797,622,2852,-2996,-2743,-8605,19397,0
6,1798,2472,-914,-158,-3619,-9166,16610,0
6,1799,4850,-2798,1998,-2718,-8501,14694,0
6,1800,6438,-4912,1248,-1125,-6130,13611,0
6,1801,5482,-3734,96,-111,-4152,13177,0
6,1802,3462,-1804,382,805,-3344,12932,0
6,1803,1254,-394,1180,811,-2097,12891,0
6,1804,-980,774,1224,469,-1547,12543,0
6,1805,-3594,1606,1988,583,-812,12688,0
6,1806,-3594,2206,1618,359,-2156,12380,0
6,1807,-2950,576,1422,-420,-2296,12417,0
6,1808,-1250,194,1282,-278,-3175,12086,0
6,1809,-256,-568,798,-410,-2881,12283,0
6,1810,-810,-2416,336,46,-2031,13452,0
6,1811,-1970,-902,408,566,-1517,14887,0
6,1812,-1702,-636,348,624,-2016,15181,0
6,1813,-1092,774,566,537,-1600,15994,0
6,1814,-1948,1086,-170,704,-1154,16781,0
6,1815,-1160,414,498,558,-1438,16403,0
6,1816,-1586,-498,984,139,-1369,16660,0
6,1817,-180,-844,936,-118,-2314,15951,0
6,1818,92,-938,1224,-463,-1902,15423,0
6,1819,554,-694,2124,-390,-1963,14686,0
7,1820,-1772,3844,1466,-718,-3116,18084,0
7,1821,-3202,4596,1766,-1599,-3343,17385,0
7,1822,-3814,3878,3750,-2473,-4214,16371,0
7,1823,-4546,1462,4798,-2866,-3892,15722,0
7,1824,-4106,-374,6356,-2865,-3939,14909,0
7,1825,-1514,-3574,7970,-1419,-4878,14118,0
7,1826,4656,1280,3000,-29,-5439,14055,0
7,1827,3044,-4636,7012,348,-4325,12012,0
7,1828,2082,-6280,4280,399,-3665,12002,0
7,1829,2432,-5272,2342,172,-4354,12481,0
7,1830,2130,-4694,70,-91,-4248,13103,0
7,1831,2558,-2660,-1946,-223,-4766,13706,0
7,1832,2838,492,-2270,-901,-4813,14423,0
7,1833,1800,2792,-1900,-1270,-3899,14686,0
7,1834,-418,5150,-2916,-1376,-3352,14367,0
7,1835,-2234,5564,-1590,-1808,-3166,14076,0
7,1836,-4172,4734,210,-2414,-3018,14003,0
7,1837,-5412,4260,348,-2752,-2655,14658,0
7,1838,-5886,2412,140,-3118,-3311,15372,0
7,1839,-5266,2388,1154,-3341,-3826,16710,0
7,1840,-3382,1002,1432,-3657,-4858,17181,0
7,1841,-1184,-1240,1812,-3800,-5217,16923,0
7,1842,-90,-2406,2296,-3112,-4689,16244,0
7,1843,382,-3192,2712,-1854,-4079,15615,0
7,1844,472,-2904,2366,-851,-3374,14890,0
7,1845,346,-2256,1732,-132,-3094,14618,0
7,1846,66,-2534,1340,58,-3058,14562,0
7,1847,358,-1308,244,-44,-2935,14539,0
7,1848,-170,-1874,-344,-356,-2569,14623,0
7,1849,-306,-50,-1302,-836,-2145,14572,0
7,1850,-1332,262,-1152,-958,-1907,14551,0
7,1851,-1488,1244,-1416,-1046,-1822,14788,0
7,1852,-2098,1140,-1128,-1114,-1530,15155,0
7,1853,-2560,828,-1256,-977,-1604,15355,0
7,1854,-2574,794,-2328,-1056,-1529,15546,0
7,1855,-1716,76,-2442,-1113,-1457,15647,0
7,1856,-1602,564,-1566,-1146,-1400,15717,0
7,1857,-1218,760,-2236,-1321,-1691,15792,0
7,1858,-362,286,-2108,-1650,-2156,15950,0
7,1859,-160,448,-1532,-1886,-2333,15873,0
7,1860,584,-362,-1658,-2043,-2127,15668,0
7,1861,620,-800,-1416,-1871,-1976,15453,0
7,1862,766,-720,-1658,-1515,-1823,15273,0
7,1863,12,-546,-2062,-1322,-1518,15230,0
7,1864,428,-846,-2420,-1140,-1614,14824,0
7,1865,-384,204,-2050,-1438,-1676,14905,0
7,1866,-564,-222,-2016,-1709,-1951,15046,0
7,1867,-1160,-684,-2396,-1968,-1678,15099,0
7,1868,-1422,-674,-1786,-1894,-1315,15452,0
7,1869,-1602,-1308,-1382,-2061,-1638,15957,0
7,1870,-1582,-1218,-1508,-1954,-1998,16071,0
7,1871,-1388,-418,-424,-1710,-2047,16264,0
7,1872,-1646,-1794,48,-1570,-1924,16519,0
7,1873,-1886,-1622,-286,-1586,-2236,17240,0
7,1874,-1940,-546,-90,-1816,-2156,18119,0
7,1875,-2030,-408,394,-1768,-2137,18836,0
7,1876,-2358,-236,370,-1603,-2432,19287,0
7,1877,-1860,-26,416,-1159,-2753,19191,0
7,1878,-408,-86,-552,-432,-3454,19393,0
7,1879,1094,-350,-2500,-281,-4534,19967,0
7,1880,2480,-442,-3804,-889,-5061,20743,0
7,1881,2322,-1448,-2616,-1295,-5828,20547,0
7,1882,3120,-2340,-3158,-1856,-6271,19874,0
7,1883,2568,-2236,-2340,-2087,-6356,18950,0
7,1884,3054,-1702,-1924,-1876,-6690,17767,0
7,1885,2040,-2868,-966,-1470,-6188,16799,0
7,1886,-454,-4892,1132,-874,-6910,16330,0
7,1887,1036,-5446,4476,183,-8419,15315,0
7,1888,966,-5910,6194,693,-7373,15455,0
7,1889,-352,-5736,6228,2324,-6355,15683,0
7,1890,-206,-3240,4326,3727,-4518,16275,0
7,1891,-248,-1182,1166,4379,-3834,16593,0
7,1892,190,528,-1946,4061,-3671,16939,0
7,1893,586,1962,-3976,3055,-4002,16474,0
7,1894,924,1638,-4450,2043,-4791,15883,0
7,1895,1656,2088,-4034,1137,-4985,15488,0
7,1896,2026,1256,-4068,260,-4731,15051,0
7,1897,1544,-1562,-990,636,-5392,14143,0
7,1898,506,-2706,-1174,-953,-2047,13841,0
7,1899,3550,-1204,-1798,-35,-4378,13228,0
7,1900,2636,-1922,-310,-755,-2344,12304,0
7,1901,2082,-1934,-1336,32,-2329,11887,0
7,1902,1484,-1414,-1072,618,-2243,12348,0
7,1903,1136,-514,-436,1346,-2436,12906,0
7,1904,764,-98,-252,1936,-2224,13456,0
7,1905,166,1672,-1266,2323,-1864,13762,0
7,1906,-296,734,-1106,2289,-1667,13647,0
7,1907,-496,1026,-1116,2018,-1980,13632,0
7,1908,-1240,1476,-1924,1250,-2410,13750,0
7,1909,-2492,-212,1166,821,-3691,13769,0
7,1910,-2348,838,128,-271,-2279,14840,0
7,1911,-712,644,510,-723,-3336,14929,0
7,1912,-1996,204,752,-48,-2789,15440,0
7,1913,-2414,216,2274,351,-2804,15525,0
7,1914,-1400,124,1444,699,-2898,15265,0
7,1915,-386,-224,752,882,-2449,14748,0
7,1916,-36,-340,890,1195,-2049,14615,0
7,1917,912,-234,-274,1415,-2117,14845,0
7,1918,1522,-1008,-956,1179,-2256,14841,0
7,1919,2604,-60,-240,1157,-2429,14961,0
7,1920,3404,182,532,1138,-2030,15007,0
7,1921,3322,-490,82,1350,-1021,14876,0
7,1922,2364,-558,382,1472,-226,14644,0
7,1923,1894,-662,532,1439,3,14512,0
7,1924,414,-860,24,1630,133,14904,0
7,1925,-432,88,740,1465,-299,15909,0
7,1926,-556,64,1316,1114,-1158,17098,0
7,1927,-632,760,1006,369,-1016,17817,0
7,1928,-576,910,1398,549,-1175,18106,0
7,1929,-386,954,1640,1244,-707,18772,0
7,1930,562,-50,716,2001,-135,19504,0
7,1931,2288,66,-1406,2659,-415,20276,0
7,1932,4136,1222,-3400,3160,-221,20977,0
7,1933,4802,3278,-6260,3122,-46,21120,0
7,1934,3660,5032,-8856,2628,-90,20875,0
7,1935,2118,7958,-9234,1807,-572,20334,0
7,1936,-372,6630,-7032,143,-2544,20163,0
7,1937,-3034,5728,-4714,-1642,-4089,20160,0
7,1938,-5212,4376,-1152,-2893,-5218,20178,0
7,1939,-5314,2226,2836,-3763,-7661,19089,0
7,1940,-4444,168,4718,-4524,-8199,17569,0
7,1941,-3384,-2602,7348,-4101,-8687,17145,0
7,1942,-1364,-3758,9124,-2869,-8290,16355,0
7,1943,-136,-3944,9088,-1425,-7406,15026,0
7,1944,652,-3494,7832,-15,-6760,13587,0
7,1945,-790,-3018,6898,620,-5660,12257,0
7,1946,-734,-1632,3784,2487,-4580,12578,0
7,1947,166,-84,-344,2971,-5044,13158,0
7,1948,1644,1094,-2432,1643,-5230,12565,0
7,1949,1938,-142,-2984,43,-5583,12221,0
7,1950,900,-710,-2638,-1247,-5826,12541,0
7,1951,-422,-722,-1072,-2096,-5623,12820,0
7,1952,-2178,-1310,1500,-2305,-5604,12992,0
7,1953,-3566,-1010,2412,-2133,-5138,12842,0
7,1954,-5234,-652,4188,-1562,-4951,13007,0
7,1955,-5426,-1450,4730,-1054,-4774,13448,0
7,1956,-4690,-1308,3980,-560,-4483,14320,0
7,1957,-3836,-1092,1962,-85,-4667,15283,0
7,1958,-2606,-1092,982,64,-4574,15525,0
7,1959,-1130,758,-1036,82,-3689,15780,0
7,1960,-216,1254,-3596,53,-3140,16063,0
7,1961,100,2042,-4208,-453,-2888,15841,0
7,1962,584,1208,-4426,-1188,-2841,15679,0
7,1963,764,610,-5118,-1546,-2688,15542,0
7,1964,618,562,-4484,-1770,-2459,15362,0
7,1965,684,-236,-2870,-1483,-2358,14996,0
7,1966,472,-754,-2086,-1107,-2039,14619,0
7,1967,-206,-814,-1682,-772,-1819,14225,0
7,1968,-240,-848,-1382,-480,-1689,14061,0
7,1969,-950,-222,-1082,-342,-1591,14074,0
7,1970,-1276,-744,-2074,-446,-1577,14295,0
7,1971,-1232,-594,-1750,-614,-2116,14915,0
7,1972,-1074,-338,-2420,-662,-2524,15403,0
7,1973,-398,-364,-3204,-691,-2479,15515,0
7,1974,188,-248,-2824,-705,-2578,15581,0
7,1975,78,-60,-2638,-836,-2479,15601,0
7,1976,42,526,-3284,-1013,-2353,15595,0
7,1977,112,-200,-3100,-1413,-2526,15608,0
7,1978,166,-606,-2154,-1856,-2701,15503,0
7,1979,-60,-626,-1682,-1952,-2727,15292,0
7,1980,-454,-1770,-702,-1416,-2746,15091,0
7,1981,-702,-1980,118,-827,-2502,15253,0
7,1982,-778,-2858,-344,-612,-2619,15962,0
7,1983,-588,-2836,-898,-570,-2741,16687,0
7,1984,-90,-2106,-436,-235,-2989,17560,0
7,1985,684,-2084,-1428,189,-2609,17907,0
7,1986,1114,-964,-2950,353,-2337,17972,0
7,1987,1350,64,-4034,489,-2220,17737,0
7,1988,304,124,-3654,464,-2122,18363,0
7,1989,844,1326,-4750,278,-2372,19456,0
7,1990,1226,908,-4864,-148,-2699,19668,0
7,1991,1676,-130,-5210,-444,-3256,19436,0
7,1992,1068,-1484,-4750,-327,-3345,19827,0
7,1993,188,-3864,-4588,-924,-5021,19694,0
7,1994,594,-1888,-4438,-762,-6087,20722,0
7,1995,990,-2466,-2604,-810,-7280,20082,0
7,1996,1690,-1818,-1878,-1370,-6869,18754,0
7,1997,2984,-1888,-148,-1332,-7658,17241,0
7,1998,4416,-2916,2574,-250,-7042,15525,0
7,1999,4552,-3228,5352,-312,-7167,14799,0
7,2000,1406,-3378,6956,706,-6524,14218,0
7,2001,-1018,-4130,8708,2374,-6291,13791,0
7,2002,-4422,-3010,8662,4018,-4750,15315,0
7,2003,-4476,-1968,5778,5509,-3900,16604,0
7,2004,-3100,320,2734,6483,-3853,17595,0
7,2005,-860,1670,-1336,5543,-4044,18053,0
7,2006,1552,2964,-4114,3584,-4235,17428,0
7,2007,3708,2076,-5394,1739,-4444,16426,0
7,2008,4564,1904,-4922,563,-4298,15414,0
7,2009,4472,942,-5394,-395,-4082,14397,0
7,2010,5116,330,-3838,-730,-4079,13572,0
7,2011,5264,-1540,-1786,-722,-3501,13070,0
7,2012,4304,-1762,-114,-57,-2297,12383,0
7,2013,2736,-3010,464,497,-1352,11869,0
7,2014,1620,-2928,486,1190,-857,12076,0
7,2015,944,-2166,670,2140,-831,12425,0
7,2016,1362,-1460,198,2813,-946,12969,0
7,2017,496,-638,452,2650,-1240,13053,0
7,2018,-1128,112,1006,2438,-1392,12926,0
7,2019,-2258,1370,844,2195,-1838,13328,0
7,2020,-3102,1902,1904,1833,-2307,14164,0
7,2021,-3756,2074,2400,1364,-2306,14617,0
7,2022,-4320,2514,1950,1145,-2564,14509,0
7,2023,-4614,1936,-1116,-811,-4806,14788,0
7,2024,-3972,654,3368,1092,-3006,14963,0
7,2025,-3472,124,3242,639,-3955,15545,0
7,2026,-2010,-1160,4672,464,-3470,15557,0
7,2027,-228,-1634,4764,702,-3149,14837,0
7,2028,1178,-2882,3966,1205,-2944,14432,0
7,2029,2152,-2938,3472,1703,-2599,14335,0
7,2030,2320,-2120,2942,2155,-2125,13983,0
7,2031,2928,-1864,1350,2809,-1548,14138,0
7,2032,2928,-1680,1132,2764,-1101,14726,0
7,2033,3144,-488,1074,2629,-477,14985,0
7,2034,2884,-594,624,2276,-48,15023,0
7,2035,1914,-802,520,2050,505,15252,0
7,2036,324,272,1074,2029,875,15854,0
7,2037,-432,584,1686,1671,455,16915,0
7,2038,-1006,1578,2216,783,-251,17586,0
7,2039,-566,966,2770,449,-1121,18239,0
7,2040,-430,736,4164,683,-1183,19008,0
7,2041,506,-118,4200,1636,-970,19784,0
7,2042,1812,-894,3104,2186,-862,20096,0
7,2043,3414,-502,1708,3364,-776,20305,0
7,2044,4744,562,-1208,4270,-969,20309,0
7,2045,4810,2272,-2916,4773,-1160,20321,0
7,2046,3686,4746,-3042,3980,-1531,20055,0
7,2047,662,5702,-2638,2576,-2148,19995,0
7,2048,-970,7634,-2028,1169,-3401,20159,0
7,2049,-2674,7900,94,-622,-4712,19540,0
7,2050,-2266,4422,1328,-2584,-6451,18012,0
7,2051,-308,1000,3150,-3771,-7806,16554,0
7,2052,1272,-2420,4326,-3701,-7761,16648,0
7,2053,1362,-2224,5664,-2561,-7623,17393,0
7,2054,1654,-2224,6482,-2067,-7435,16310,0
7,2055,2220,-2626,6218,-1181,-6109,14247,0
7,2056,2026,-2374,4338,494,-4851,12994,0
7,2057,2016,-1206,1858,1994,-3989,13194,0
7,2058,2252,-166,186,1614,-4463,13206,0
7,2059,2218,-788,-68,224,-4659,13069,0
7,2060,2060,-826,106,-815,-5046,13042,0
7,2061,990,-1934,740,-1316,-4549,13568,0
7,2062,-308,-1334,1604,-1597,-3843,13752,0
7,2063,-1840,-1716,3070,-1774,-3511,13345,0
7,2064,-2574,-2304,4592,-1805,-3339,13232,0
7,2065,-3340,-1912,5732,-1532,-3531,13344,0
7,2066,-4442,-2280,5040,-860,-3506,13716,0
7,2067,-4794,-1508,4210,146,-3310,14551,0
7,2068,-3724,-768,3818,792,-3209,15386,0
7,2069,-2914,468,2294,1129,-3168,15792,0
7,2070,-1356,446,278,1097,-2873,15898,0
7,2071,-442,666,-898,907,-2728,15616,0
7,2072,-60,410,-1624,341,-2670,15547,0
7,2073,414,468,-2200,-160,-2653,15652,0
7,2074,392,168,-1704,-425,-2401,15643,0
7,2075,76,156,-1232,-703,-2265,15538,0
7,2076,-248,378,-1786,-900,-2088,15372,0
7,2077,-452,-1078,-1416,-780,-1853,15076,0
7,2078,-240,-676,-274,-500,-1741,14938,0
7,2079,-362,-222,-424,-212,-1615,14729,0
