id,cnt,gx,gy,gz,ax,ay,az,pls
0,0,160,68,-60,-345,-989,16135,0
0,1,16,-218,806,-379,-963,16035,0
0,2,-120,984,90,-352,-1012,16053,0
0,3,-280,-290,-336,-344,-1034,16005,0
0,4,-370,-416,-278,-314,-1017,16031,0
0,5,-74,-530,-164,-322,-995,16111,0
0,6,-98,334,-1120,-186,-920,16125,0
0,7,-164,382,-706,-79,-929,16133,0
0,8,-222,46,276,11,-962,16053,0
0,9,-232,360,-118,8,-1066,15991,0
0,10,-268,-312,-290,19,-1042,15990,0
0,11,72,324,310,-37,-1104,16089,0
0,12,-232,-196,-152,-79,-1120,16131,0
0,13,-268,346,-348,-138,-1077,16149,0
0,14,150,-462,-164,-248,-1089,16109,0
0,15,-98,-440,552,-313,-1083,16091,0
0,16,-6,-126,-394,-353,-1075,16055,0
0,17,-186,-830,402,-302,-1027,16009,0
0,18,106,544,-164,-247,-987,15998,0
0,19,2,-648,68,-250,-987,15992,0
0,20,-74,232,-428,-244,-1041,16040,0
0,21,-110,126,-486,-232,-1033,16071,0
0,22,28,-414,68,-310,-1062,16100,0
0,23,150,196,-198,-233,-1040,16084,0
0,24,2,-208,-302,-208,-1052,16058,0
0,25,-40,-622,620,-235,-1021,16074,0
0,26,50,-658,-70,-135,-1117,16120,0
0,27,4,-460,160,-157,-1111,16115,0
0,28,36,358,-106,-131,-1060,16079,0
0,29,276,-506,-82,-98,-940,16085,0
0,30,274,-220,-324,-62,-983,16060,0
0,31,-132,-94,-118,-38,-1012,16071,0
0,32,-110,-764,506,-82,-1041,16014,0
0,33,-110,438,32,-136,-997,15951,0
0,34,-142,-22,-498,-212,-979,15997,0
0,35,-32,358,68,-261,-978,16065,0
0,36,-18,-472,-24,-244,-980,16193,0
0,37,120,-530,-210,-202,-1007,16053,0
0,38,4,-530,22,-223,-1058,16015,0
0,39,50,-334,-360,-238,-1037,15989,0
0,40,14,-208,-2,-271,-1036,16062,0
0,41,2,312,-866,-259,-1013,16079,0
0,42,118,94,-452,-233,-1012,16081,0
0,43,92,150,956,-173,-975,16063,0
0,44,70,-290,436,-143,-914,16062,0
0,45,-154,-518,-278,-100,-945,16043,0
0,46,160,22,-660,-114,-988,16036,0
0,47,-132,-94,-266,-146,-1014,16090,0
0,48,2,276,-70,-140,-1008,16068,0
0,49,-120,-230,-394,-170,-1070,16071,0
0,50,72,-10,-118,-180,-1041,16116,0
0,51,186,302,322,-214,-1012,16066,0
0,52,-40,-172,-520,-230,-951,16009,0
0,53,-122,-36,-440,-256,-932,15999,0
0,54,26,-358,436,-184,-884,16057,0
0,55,-98,34,390,-149,-909,16025,0
0,56,-278,-44,228,-148,-929,16095,0
0,57,-130,510,-70,-175,-877,15982,0
0,58,4,-356,44,-183,-922,15979,0
0,59,-302,-150,-152,-192,-1006,16082,0
0,60,-154,24,-198,-200,-1081,16068,0
0,61,194,438,840,-227,-1113,16159,0
0,62,218,-322,68,-235,-1074,16134,0
0,63,-18,-68,-2,-273,-997,16079,0
0,64,138,230,-406,-260,-956,15957,0
0,65,28,-300,-48,-275,-977,16007,0
0,66,-32,566,194,-308,-878,15960,0
0,67,-30,-172,148,-288,-770,15906,0
0,68,-164,152,32,-342,-742,16063,0
0,69,-118,-80,-164,-293,-831,16025,0
0,70,82,-682,-786,-284,-906,16024,0
0,71,64,-172,-244,-327,-922,16030,0
0,72,36,-924,332,-325,-900,16069,0
0,73,-176,-264,-314,-364,-986,16069,0
0,74,-164,-750,160,-156,-1139,16148,0
0,75,4,-22,-752,-75,-1228,16110,0
0,76,228,-948,-220,-177,-1172,16066,0
0,77,-20,-36,-314,-121,-1096,16031,0
0,78,-52,-392,-336,-194,-1008,16083,0
0,79,126,114,552,-171,-984,16036,0
0,80,-84,-92,90,-205,-896,16040,0
0,81,-156,-278,-256,-194,-897,15976,0
0,82,-96,-310,390,-229,-858,16089,0
0,83,174,-588,172,-224,-858,16052,0
0,84,84,-196,-232,-270,-990,16046,0
0,85,94,-426,460,-244,-993,16080,0
0,86,-186,382,378,-241,-962,16054,0
0,87,-96,-114,44,-286,-1005,16109,0
0,88,92,-24,-520,-221,-984,16031,0
0,89,60,-232,172,-244,-1008,16061,0
0,90,-64,46,-314,-196,-889,16052,0
0,91,-154,-102,22,-198,-859,16046,0
0,92,-200,-278,-370,-172,-886,16065,0
0,93,-358,-208,206,-234,-897,16029,0
0,94,-42,-208,702,-251,-964,16095,0
0,95,-96,116,-60,-254,-979,16116,0
0,96,-54,-544,136,-334,-1020,16065,0
0,97,-18,-368,-566,-313,-1008,16119,0
0,98,-232,-588,78,-274,-972,16149,0
0,99,74,210,-266,-255,-970,16118,0
0,100,-220,-496,10,-208,-917,16052,0
0,101,16,-264,528,-217,-944,15945,0
0,102,28,-44,136,-251,-976,15975,0
0,103,82,-890,-278,-300,-945,16003,0
0,104,38,-530,182,-316,-861,16097,0
0,105,64,-172,322,-320,-933,16077,0
0,106,-152,244,-670,-304,-962,16056,0
0,107,-108,82,-48,-324,-956,16089,0
0,108,38,-160,-314,-291,-929,16064,0
0,109,184,-612,-370,-281,-945,16088,0
0,110,38,-22,-370,-202,-1007,16084,0
0,111,4,278,-36,-231,-1004,16129,0
0,112,196,278,668,-252,-970,16095,0
0,113,50,48,-48,-270,-871,16001,0
0,114,6,-92,56,-283,-898,16015,0
0,115,262,300,-290,-260,-883,16045,0
0,116,140,-102,276,-283,-868,16059,0
0,117,38,-300,-544,-313,-895,16083,0
0,118,28,-460,344,-236,-916,16050,0
0,119,-30,-346,344,-290,-937,16098,0
0,120,210,-56,-14,-299,-951,16083,0
0,121,4,244,-716,-254,-904,16069,0
0,122,92,-12,-24,-235,-898,16124,0
0,123,162,-600,-94,-229,-915,16022,0
0,124,274,-208,-70,-254,-904,16082,0
0,125,-130,-680,298,-253,-854,16086,0
0,126,-18,164,-244,-254,-899,16028,0
0,127,50,428,356,-267,-935,15993,0
0,128,48,-266,-716,-205,-864,16015,0
0,129,50,-692,240,-207,-833,16010,0
0,130,-132,-104,620,-141,-858,15970,0
0,131,-368,-22,-256,-106,-944,16071,0
0,132,-50,-56,-290,-189,-939,16116,0
0,133,48,254,-532,-234,-951,16113,0
0,134,72,24,160,-192,-887,16156,0
0,135,84,-230,-118,-195,-831,16130,0
0,136,-86,12,-612,-143,-783,16037,0
0,137,84,372,126,-87,-718,15986,0
0,138,-344,-334,10,-43,-768,15990,0
0,139,-30,210,172,-110,-853,16039,0
0,140,-142,-610,136,-179,-876,16028,0
0,141,-128,-68,436,-217,-867,16109,0
0,142,-200,34,-14,-256,-878,16171,0
0,143,-6,-750,-382,-256,-907,16175,0
0,144,-96,-138,402,-185,-895,16069,0
0,145,-322,-414,194,-177,-891,16058,0
0,146,-218,-368,10,-180,-874,16015,0
0,147,-84,-472,-336,-186,-871,16084,0
0,148,30,324,-164,-185,-832,16153,0
0,149,-40,-276,332,-134,-805,16124,0
0,150,50,-230,68,-133,-792,16059,0
0,151,-62,-576,136,-158,-801,15931,0
0,152,172,462,-118,-180,-766,15991,0
0,153,-142,152,-2,-241,-829,15965,0
0,154,-62,-10,126,-239,-910,16095,0
0,155,-18,-148,264,-255,-901,16152,0
0,156,-266,174,194,-137,-833,16091,0
0,157,-40,36,436,-201,-837,16095,0
0,158,38,-288,-590,-166,-831,15949,0
0,159,-18,-496,-314,-182,-869,16014,0
0,160,72,-56,148,-177,-888,16023,0
0,161,-344,-230,-164,-213,-894,16020,0
0,162,-356,-414,482,-188,-861,16116,0
0,163,154,580,-118,-200,-893,16156,0
0,164,-52,-264,298,-212,-885,16085,0
0,165,-86,-148,-94,-200,-830,16005,0
0,166,38,-114,-452,-221,-805,15959,0
0,167,-86,-310,494,-208,-847,16033,0
0,168,-232,-184,-118,-158,-895,16111,0
0,169,-144,-232,172,-147,-930,16092,0
0,170,50,2,506,-158,-908,16104,0
0,171,-108,-576,518,-186,-897,16036,0
0,172,-186,348,-544,-161,-919,16104,0
0,173,-322,-230,310,-192,-856,16089,0
0,174,-38,-68,286,-171,-866,16054,0
0,175,264,198,460,-212,-895,16139,0
0,176,-122,-12,-510,-288,-863,16065,0
0,177,-86,70,-36,-275,-806,16055,0
0,178,50,70,552,-309,-771,16061,0
0,179,-266,82,-774,-280,-832,16059,0
0,180,-128,-680,368,-294,-928,16000,0
0,181,-128,-368,218,-270,-969,16005,0
0,182,-142,-80,-48,-259,-977,16038,0
0,183,-468,-450,-578,-232,-952,16138,0
0,184,-6,418,-2,-219,-958,16114,0
0,185,-120,-450,44,-215,-933,16141,0
0,186,-266,-310,-2,-177,-888,15984,0
0,187,-280,-186,276,-211,-904,16081,0
0,188,252,348,68,-230,-951,16037,0
0,189,-142,-126,44,-185,-939,16031,0
0,190,-164,-276,-670,-210,-917,16065,0
0,191,84,902,-360,-174,-881,16070,0
0,192,116,-810,390,-214,-825,16071,0
0,193,-198,498,-36,-246,-841,16044,0
0,194,70,-520,228,-306,-847,16025,0
0,195,-84,278,344,-322,-872,16016,0
0,196,-244,-380,-370,-342,-895,16143,0
0,197,-176,174,-544,-276,-918,16094,0
0,198,16,-818,-128,-204,-941,16084,0
0,199,196,-392,126,-189,-898,16048,0
0,200,50,-10,322,-161,-940,16038,0
0,201,-244,-218,-14,-207,-884,15989,0
0,202,-106,-704,276,-222,-883,16097,0
0,203,342,406,-440,-226,-909,16033,0
0,204,118,36,-636,-215,-909,16004,0
0,205,30,556,-602,-231,-917,16052,0
0,206,-62,-126,252,-227,-891,16060,0
0,207,-16,-300,90,-226,-894,16076,0
0,208,140,-414,-94,-182,-863,16080,0
0,209,218,-276,10,-195,-883,16074,0
0,210,4,-622,-186,-164,-861,16057,0
0,211,-96,-102,-152,-209,-924,16070,0
0,212,4,-496,-118,-196,-850,16040,0
0,213,130,210,44,-209,-855,16009,0
0,214,-108,314,436,-204,-860,15991,0
0,215,-232,-402,-716,-200,-926,16064,0
0,216,4,406,264,-234,-962,16112,0
0,217,-6,-22,564,-216,-947,16058,0
0,218,-94,-160,126,-279,-975,16081,0
0,219,-254,-958,-324,-245,-939,16099,0
0,220,-334,278,-256,-256,-907,16113,0
0,221,-210,152,-118,-257,-905,16050,0
0,222,-154,-92,-452,-258,-872,16021,0
0,223,-404,-370,264,-234,-834,16023,0
0,224,-50,256,402,-237,-875,16027,0
0,225,-300,-380,-94,-252,-862,16074,0
0,226,-426,-520,-786,-231,-851,16050,0
0,227,-54,-128,-556,-247,-866,16058,0
0,228,-152,-322,-48,-232,-911,16077,0
0,229,2,218,-290,-234,-938,16046,0
0,230,-52,-264,286,-232,-916,16004,0
0,231,-86,232,276,-218,-919,16101,0
0,232,-8,-220,-174,-187,-902,16162,0
0,233,118,-576,-924,-188,-869,16053,0
0,234,50,324,-440,-160,-870,16054,0
0,235,-218,-252,322,-188,-863,16008,0
0,236,62,-392,-290,-187,-836,16057,0
0,237,-62,-368,148,-188,-875,16043,0
0,238,14,-290,68,-190,-868,16048,0
0,239,-6,-310,-94,-220,-864,16069,0
0,240,-54,-312,-544,-186,-857,16081,0
0,241,-366,-56,-94,-230,-883,16058,0
0,242,-220,-288,10,-244,-861,16018,0
0,243,-140,60,90,-253,-934,16012,0
0,244,-18,-218,310,-250,-912,16072,0
0,245,-104,166,300,-223,-873,16132,0
0,246,242,-206,518,-205,-904,16047,0
0,247,-108,324,-336,-228,-887,16067,0
0,248,334,164,-556,-198,-882,15992,0
0,249,-18,-288,322,-166,-899,16038,0
0,250,218,-206,-106,-211,-942,16006,0
0,251,20,-504,-218,-207,-919,16097,0
0,252,38,140,194,-199,-858,16001,0
0,253,-96,394,-14,-203,-830,16080,0
0,254,-106,-830,-244,-213,-834,16087,0
0,255,-16,186,-232,-219,-833,16041,0
0,256,-130,290,228,-234,-809,15952,0
0,257,118,290,-118,-273,-851,15979,0
0,258,-198,-276,-740,-252,-877,16006,0
0,259,-232,-114,-164,-242,-891,15992,0
1,260,18,336,56,109,-910,15883,0
1,261,738,-218,44,-95,-836,15852,0
1,262,402,788,-94,152,-452,15901,0
1,263,230,-34,148,-46,-298,15921,0
1,264,-154,464,-290,-327,-163,16164,0
1,265,-82,396,-530,-334,-341,16350,0
1,266,-74,-934,390,-236,-551,16367,0
1,267,-84,-992,-164,176,-419,16176,0
1,268,-216,-8,-426,273,-492,16179,0
1,269,6,210,424,24,-664,15889,0
1,270,-108,-206,-302,45,-566,15820,0
1,271,-592,510,-324,48,-531,15781,0
1,272,-6,24,240,-164,-848,15849,0
1,273,376,-288,-220,-241,-966,16008,0
1,274,276,82,-128,-8,-717,16144,0
1,275,332,-264,160,158,-542,16151,0
1,276,222,512,738,220,-367,16214,0
1,277,-106,476,22,-113,-337,16301,0
1,278,-186,-34,-566,-439,-419,16295,0
1,279,-184,48,-566,-424,-512,16208,0
1,280,-308,12,-256,-148,-465,16052,0
1,281,-94,602,-348,-232,-566,15958,0
1,282,-412,-1050,-2,-369,-740,16005,0
1,283,-4,-646,10,-132,-765,16112,0
1,284,222,-262,346,-80,-695,16170,0
1,285,638,-460,286,8,-677,16267,0
1,286,774,372,32,74,-643,16299,0
1,287,772,-1108,356,-46,-645,16144,0
1,288,320,-276,-416,121,-328,15938,0
1,289,-466,-126,-186,-128,37,15814,0
1,290,-918,-438,368,-164,-7,16091,0
1,291,-28,-92,886,-464,-445,16577,0
1,292,740,-1940,1014,-1022,-757,16923,0
1,293,560,-2946,1890,-1217,-653,16819,0
1,294,974,-3234,1948,-689,-473,16363,0
1,295,748,-2702,944,124,174,15811,0
1,296,286,-2228,424,511,506,15914,0
1,297,-274,-1742,912,876,-434,15487,0
1,298,-388,-1304,-474,1612,-961,15380,0
1,299,164,140,-844,1555,-1149,15198,0
1,300,18,1724,-152,1260,-755,14977,0
1,301,266,1134,78,768,-798,15527,0
1,302,614,82,-602,116,-1015,16194,0
1,303,1392,336,-70,-92,-896,16714,0
1,304,1810,360,690,156,-573,16721,0
1,305,1414,186,-314,539,-141,16230,0
1,306,174,48,-808,1041,-18,15855,0
1,307,-244,752,-1858,1192,-111,15830,0
1,308,-526,1122,-1282,559,64,15903,0
1,309,-1098,960,-1420,-435,189,16015,0
1,310,-162,336,-486,-525,-41,16104,0
1,311,-198,706,748,41,-317,16243,0
1,312,276,-126,448,-349,-557,16577,0
1,313,502,-1732,402,-386,-661,16791,0
1,314,344,-1432,414,214,-450,16715,0
1,315,528,-1094,496,281,-87,16453,0
1,316,550,-1626,208,-82,-48,15941,0
1,317,-84,-1708,564,198,-167,15482,0
1,318,74,-842,702,758,-260,15362,0
1,319,252,626,264,1208,-519,15275,0
1,320,-276,336,-832,1154,-665,15513,0
1,321,-244,856,-682,692,-549,16010,0
1,322,-796,626,-520,704,-437,16273,0
1,323,-322,278,-808,503,-516,16368,0
1,324,-334,302,-24,292,-375,16307,0
1,325,-252,-380,206,182,-480,16236,0
1,326,16,-322,-660,302,-341,16134,0
1,327,52,186,-416,-63,-104,15979,0
1,328,300,844,-82,-345,188,16035,0
1,329,-140,-252,678,-679,179,16464,0
1,330,-198,-576,1024,-789,102,16585,0
1,331,-74,-1802,1048,79,66,16551,0
1,332,-546,-1016,286,664,-106,16362,0
1,333,-434,-1386,206,365,-469,16004,0
1,334,-932,-1732,-48,510,-329,15830,0
1,335,-512,-1224,-498,597,-370,15688,0
1,336,-210,-750,724,430,-536,15754,0
1,337,-254,-1200,102,534,-744,15862,0
1,338,108,-138,-428,900,-732,15801,0
1,339,188,1468,148,995,-533,15616,0
1,340,-196,336,-394,699,-262,15740,0
1,341,-298,360,-752,349,-197,16198,0
1,342,198,210,22,-230,-556,16540,0
1,343,388,-530,218,85,-496,16624,0
1,344,334,-218,160,525,-164,16533,0
1,345,-84,-1016,-118,449,74,16082,0
1,346,-446,-148,148,335,100,15948,0
1,347,-782,-322,78,308,-266,15804,0
1,348,-30,-634,-324,497,-569,15898,0
1,349,144,26,-750,689,-642,15821,0
1,350,64,324,368,755,-560,15728,0
1,351,300,868,-106,430,-310,15802,0
1,352,108,-138,90,66,-294,15926,0
1,353,64,198,644,339,-530,16299,0
1,354,366,-148,136,644,-680,16415,0
1,355,500,-264,-878,341,-343,16223,0
1,356,-174,-68,-348,334,42,16085,0
1,357,-512,-564,-164,558,-171,16051,0
1,358,-16,198,32,521,-271,15949,0
1,359,96,-22,240,35,-208,15832,0
1,360,4,522,206,325,-340,15967,0
1,361,140,672,-210,394,-458,16113,0
1,362,142,48,-486,-52,-435,16278,0
1,363,84,-460,-452,-89,-251,16368,0
1,364,-298,-322,448,232,-268,16380,0
1,365,-128,-1096,424,483,-217,16101,0
1,366,-142,-934,-774,432,-355,15961,0
1,367,-60,-276,436,467,-479,15927,0
1,368,-278,-218,-24,455,-396,15883,0
1,369,-332,-426,-706,615,-293,15961,0
1,370,-196,-402,-24,501,-531,16127,0
1,371,560,-380,678,-36,-551,15958,0
1,372,-186,-300,-164,215,-53,15869,0
1,373,40,-368,22,453,-225,15806,0
1,374,366,314,-94,447,-479,16190,0
1,375,-120,-726,-220,514,-368,16266,0
1,376,-118,24,-648,671,-209,16255,0
1,377,-196,-34,-290,618,-94,16118,0
1,378,-218,-68,-118,311,-304,15986,0
1,379,188,752,-14,86,-481,15795,0
1,380,444,-450,-302,348,-398,15935,0
1,381,548,94,-118,470,-433,16165,0
1,382,580,-126,136,295,-349,16437,0
1,383,118,-808,-2,-77,84,16235,0
1,384,-276,-322,-128,302,189,16096,0
1,385,-422,-102,-2,574,-217,15945,0
1,386,-186,-68,-106,575,-299,15763,0
1,387,-648,-218,-290,313,-429,15851,0
1,388,-218,314,460,205,-590,16073,0
1,389,162,-160,-140,486,-590,16235,0
1,390,64,302,-70,355,-409,16067,0
1,391,276,2,-762,415,-195,15877,0
1,392,120,752,-532,581,-239,15925,0
1,393,-426,404,-186,210,-73,15910,0
1,394,-502,174,-210,120,-185,16049,0
1,395,-264,140,-820,389,-487,16410,0
1,396,-196,336,-612,291,-537,16703,0
1,397,-18,-564,-1040,-230,-247,16472,0
1,398,52,-888,-406,-351,-47,16133,0
1,399,-298,-1628,310,52,0,15935,0
1,400,-106,-600,356,292,-143,15884,0
1,401,-286,-854,90,471,-239,15757,0
1,402,-458,-300,-14,602,-419,16117,0
1,403,-244,-506,240,481,-284,16476,0
1,404,-524,-1304,-36,-285,-101,16450,0
1,405,-514,-2160,194,-324,-45,16408,0
1,406,-176,-2482,378,405,-136,16181,0
1,407,-106,-1490,-244,1041,-322,15794,0
1,408,-332,-1016,206,1080,-431,15485,0
1,409,-444,-750,540,955,-551,15515,0
1,410,-354,24,32,1129,-635,15744,0
1,411,-30,-172,-716,735,-699,16026,0
1,412,140,82,-210,706,-628,15973,0
1,413,64,314,-152,898,-602,16001,0
1,414,184,358,-590,811,-616,16043,0
1,415,52,348,-94,524,-467,16115,0
1,416,84,164,-394,283,-295,16133,0
1,417,38,-218,414,260,-70,16295,0
1,418,-72,186,-164,41,-76,16264,0
1,419,-30,-888,424,202,-109,16188,0
1,420,-184,-866,564,449,-256,16030,0
1,421,-298,-126,402,784,-312,16020,0
1,422,-388,-668,-164,819,-369,16018,0
1,423,-412,-576,-336,786,-322,16023,0
1,424,-466,-426,-70,774,-449,16007,0
1,425,-196,-588,-682,600,-520,16026,0
1,426,402,-460,806,515,-470,16077,0
1,427,-74,-1108,298,687,-527,16034,0
1,428,140,-34,56,787,-515,15998,0
1,429,286,-530,-210,861,-373,15952,0
1,430,-184,498,-612,816,-229,15915,0
1,431,-410,82,56,697,-240,15932,0
1,432,-52,60,-164,407,-331,16036,0
1,433,84,1296,-474,530,-417,16185,0
1,434,176,36,-2,559,-461,16183,0
1,435,-230,-206,-36,657,-417,16096,0
1,436,16,486,-94,581,-419,16104,0
1,437,-264,-114,-290,380,-397,16092,0
1,438,-276,-114,-220,482,-399,16169,0
1,439,74,-472,-716,672,-410,16040,0
1,440,94,186,-682,736,-476,16020,0
1,441,388,-796,90,541,-719,15899,0
1,442,298,-334,-314,805,-273,16066,0
1,443,286,-414,-118,559,-261,16004,0
1,444,118,-44,714,647,-116,16123,0
1,445,-210,-334,-106,666,-29,16162,0
1,446,-288,-392,114,388,-84,16106,0
1,447,-74,-438,424,350,-228,16037,0
1,448,-16,-808,126,722,-324,16002,0
1,449,64,-842,-324,781,-462,16002,0
1,450,436,-518,-382,709,-367,15912,0
1,451,-242,-692,702,921,-160,16059,0
1,452,-220,36,-244,969,-371,16026,0
1,453,-154,-242,-82,840,-469,16090,0
1,454,-40,532,540,700,-425,16013,0
1,455,130,278,276,798,-416,15994,0
1,456,-162,-242,-462,653,-362,15886,0
1,457,-288,268,-452,523,-444,15943,0
1,458,-162,70,460,647,-412,16071,0
1,459,-4,-10,-360,755,-307,16131,0
1,460,-94,510,-14,593,-130,16132,0
1,461,-478,210,552,246,-5,16154,0
1,462,-412,-1374,472,34,-211,16269,0
1,463,-50,-866,-36,516,-376,16335,0
1,464,-4,-554,182,909,-494,16177,0
1,465,278,-1084,-232,935,-367,15957,0
1,466,72,-772,-2,951,-402,15782,0
1,467,-368,-600,78,1014,-420,15865,0
1,468,-298,672,310,574,-322,15976,0
1,469,-354,-206,102,319,-404,16133,0
1,470,-500,-102,126,786,-552,16168,0
1,471,96,-184,-152,841,-611,16125,0
1,472,218,-288,-520,752,-443,15937,0
1,473,-4,-114,-774,598,-346,15940,0
1,474,264,-56,-314,813,-365,15987,0
1,475,254,-310,-36,884,-300,16002,0
1,476,76,166,-346,837,-248,15899,0
1,477,38,198,378,906,-253,15924,0
1,478,218,844,148,939,-290,15959,0
1,479,64,1504,-302,775,-298,15923,0
1,480,86,590,-556,721,-318,15948,0
1,481,-96,788,-406,746,-337,15947,0
1,482,-208,996,-60,641,-265,16021,0
1,483,142,60,-174,229,-283,15987,0
1,484,-334,440,218,297,-458,16193,0
1,485,14,832,-164,415,-600,16312,0
1,486,108,-472,78,269,-614,16433,0
1,487,176,-658,126,261,-414,16343,0
1,488,18,60,218,511,-194,16209,0
1,489,-782,-1142,78,619,-231,16190,0
1,490,-252,-888,-164,451,-322,16042,0
1,491,-94,-172,-2,576,-338,15995,0
1,492,-64,-290,794,630,-445,15942,0
1,493,262,-104,228,646,-461,15893,0
1,494,4,-392,-174,616,-443,15984,0
1,495,130,24,-70,617,-596,16138,0
1,496,128,-346,102,687,-381,16139,0
1,497,300,-450,-164,723,-273,15945,0
1,498,-444,372,-774,701,-223,15850,0
1,499,-388,164,448,721,-357,15977,0
1,500,62,336,-266,668,-380,16023,0
1,501,-52,394,22,572,-270,15988,0
1,502,-332,-114,736,321,-185,16177,0
1,503,-594,-520,10,10,-290,16233,0
1,504,-446,-808,-394,209,-404,16346,0
1,505,18,-114,90,469,-469,16198,0
1,506,-54,-636,482,620,-468,16005,0
1,507,232,-218,368,759,-440,15939,0
1,508,-28,-288,356,583,-489,15985,0
1,509,28,48,-278,528,-371,16005,0
1,510,94,-818,114,633,-324,15993,0
1,511,128,-230,-452,662,-368,15908,0
1,512,-130,60,-752,897,-332,15904,0
1,513,30,382,-498,801,-266,15954,0
1,514,-342,48,-612,482,-275,16048,0
1,515,-252,302,-70,309,-363,16120,0
1,516,-198,-796,206,198,-291,16339,0
1,517,28,-668,506,345,-274,16285,0
1,518,-130,-1120,136,496,-365,16260,0
1,519,-16,302,-602,567,-512,16187,0
2,520,450,-626,66,251,-381,16395,0
2,521,820,-548,-96,269,-365,16040,0
2,522,268,-50,-130,302,-154,15839,0
2,523,-250,-558,-304,318,39,15768,0
2,524,-578,318,-696,284,2,15892,0
2,525,-80,944,-304,93,-142,16135,0
2,526,-520,56,-418,-26,-130,16236,0
2,527,-292,-510,-154,138,-166,16292,0
2,528,178,-512,42,12,-172,16341,0
2,529,200,42,-130,253,-112,16103,0
2,530,-14,-28,320,242,-202,15874,0
2,531,178,134,504,236,-299,16066,0
2,532,-48,354,226,104,-408,16030,0
2,533,-262,-466,-326,261,-380,16075,0
2,534,42,700,-626,239,-225,16190,0
2,535,30,-2,-166,112,-66,16210,0
2,536,132,-4,-338,113,-119,16211,0
2,537,-172,-986,216,40,-163,16181,0
2,538,168,-730,480,93,-245,16231,0
2,539,210,100,-38,266,-183,16123,0
2,540,-26,-616,-476,307,-138,16002,0
2,541,154,8,-418,318,-93,15910,0
2,542,-138,-384,-638,187,-67,15975,0
2,543,-126,182,-822,102,-169,16033,0
2,544,-4,-234,-304,173,-258,16166,0
2,545,-104,110,76,245,-261,16293,0
2,546,188,158,-464,153,-245,16250,0
2,547,20,-292,-154,44,-228,16323,0
2,548,212,-396,422,-86,-244,16291,0
2,549,76,-120,-4,50,-237,16104,0
2,550,166,30,-476,178,-233,16009,0
2,551,-48,-664,30,272,-162,15996,0
2,552,8,390,422,444,-154,16037,0
2,553,22,356,446,334,-125,16035,0
2,554,64,-190,54,143,-145,16263,0
2,555,64,-352,-488,215,-203,16077,0
2,556,-130,6,-154,206,-175,15993,0
2,557,-104,76,-326,196,-185,15991,0
2,558,-46,726,-580,186,-194,16113,0
2,559,86,6,-16,110,-195,16329,0
2,560,-116,-96,-188,16,-222,16381,0
2,561,8,-1090,-142,105,-160,16281,0
2,562,110,-640,654,289,-147,16056,0
2,563,10,112,88,422,-143,15858,0
2,564,-240,100,-50,404,-190,15921,0
2,565,-218,204,158,299,-234,16043,0
2,566,-318,-86,-396,152,-236,16210,0
2,567,-194,-710,-222,53,-119,16211,0
2,568,30,-60,-558,-7,-1,16152,0
2,569,-140,-512,124,-34,-36,16136,0
2,570,222,-502,-592,38,-112,16090,0
2,571,22,518,-268,198,-207,15977,0
2,572,-38,-352,366,288,-195,16023,0
2,573,8,-38,-176,254,-255,15936,0
2,574,-228,-306,-142,192,-276,16013,0
2,575,-240,446,112,172,-123,16228,0
2,576,-262,434,100,151,-204,16078,0
2,577,-128,180,-604,79,-182,16192,0
2,578,178,-86,20,-88,-259,16329,0
2,579,592,-408,376,32,-286,16097,0
2,580,-364,170,-338,184,-35,16158,0
2,581,-204,-96,-280,220,-264,16155,0
2,582,-172,240,434,192,-186,16154,0
2,583,210,-62,-26,122,-246,16195,0
2,584,236,-72,-142,33,-287,16258,0
2,585,346,64,366,33,-276,16237,0
2,586,54,-536,-84,96,-230,16065,0
2,587,-136,-48,-614,194,-143,15901,0
2,588,110,422,-558,248,-67,15919,0
2,589,-82,622,204,177,-89,16099,0
2,590,-228,596,-26,38,-89,16291,0
2,591,110,-664,112,2,-85,16142,0
2,592,30,124,330,86,-83,16175,0
2,593,-286,274,-166,95,-20,16060,0
2,594,30,170,-316,78,-72,15944,0
2,595,-296,630,100,58,-139,16024,0
2,596,224,482,538,146,-301,16107,0
2,597,64,250,-534,182,-281,16194,0
2,598,134,-614,20,74,-191,16238,0
2,599,256,180,516,-19,-185,16181,0
2,600,-228,56,-316,-121,-80,16115,0
2,601,-162,-548,-120,-66,-58,16059,0
2,602,98,284,-534,-130,-97,16091,0
2,603,-128,-614,342,15,-228,16184,0
2,604,332,-270,-62,53,-265,16261,0
2,605,718,-502,54,62,-418,16230,0
2,606,732,90,-708,-157,-172,16102,0
2,607,324,-108,-672,194,-34,15870,0
2,608,-60,472,-1192,-113,192,15917,0
2,609,-138,110,-326,-183,98,16047,0
2,610,-38,238,54,-109,32,16074,0
2,611,20,-258,434,-16,0,16165,0
2,612,64,-144,342,241,-4,16186,0
2,613,144,678,-84,159,-77,16224,0
2,614,20,214,-338,18,-120,16147,0
2,615,8,-154,-120,-77,-146,16077,0
2,616,74,-132,-464,-172,-111,16161,0
2,617,256,-594,666,-127,-122,16134,0
2,618,-4,378,-176,-83,-136,16126,0
2,619,244,238,-130,-7,-108,16215,0
2,620,76,110,-234,-46,-38,16180,0
2,621,120,-372,-408,-120,-13,16182,0
2,622,168,20,-810,-179,47,16195,0
2,623,414,-836,296,-92,-4,16198,0
2,624,752,-490,354,-180,126,16143,0
2,625,334,-188,-120,-10,198,15955,0
2,626,-94,-352,-338,146,67,15971,0
2,627,120,494,-512,33,29,16001,0
2,628,224,-14,-546,-148,47,16066,0
2,629,98,-224,-130,-204,75,16203,0
2,630,-296,-386,-154,-104,73,16099,0
2,631,108,-16,354,-105,108,16092,0
2,632,-218,526,-200,-108,-3,16092,0
2,633,244,-432,-662,-172,-32,16233,0
2,634,188,-224,-26,-375,19,16340,0
2,635,120,-326,8,-380,30,16390,0
2,636,368,-224,226,-356,4,16316,0
2,637,200,-490,54,-276,26,16184,0
2,638,684,-490,76,-180,-109,16004,0
2,639,166,-74,400,-33,-7,15893,0
2,640,-172,238,-84,185,133,15779,0
2,641,-70,76,-546,-23,270,15865,0
2,642,-136,-234,-26,-320,261,16181,0
2,643,-162,-86,-546,-494,237,16310,0
2,644,154,-374,584,-473,173,16447,0
2,645,42,-1022,584,-279,5,16337,0
2,646,-14,-512,-16,-146,-7,16068,0
2,647,256,-178,458,4,25,15932,0
2,648,120,792,814,84,51,15916,0
2,649,122,702,-858,-56,13,16074,0
2,650,-228,-190,-742,-271,25,16242,0
2,651,234,110,-62,-310,80,16240,0
2,652,278,-998,-350,-365,176,16290,0
2,653,166,-478,-684,-338,289,16225,0
2,654,20,-686,100,-286,279,16118,0
2,655,120,-570,768,-290,159,16174,0
2,656,334,-594,158,-183,51,16209,0
2,657,154,-756,-258,-98,10,16117,0
2,658,200,-202,112,8,11,16053,0
2,659,-38,-120,-972,139,85,15973,0
2,660,-96,6,-1260,40,130,15921,0
2,661,-174,422,-754,-123,309,15991,0
2,662,-70,250,-442,-194,219,16115,0
2,663,266,-86,284,-408,155,16387,0
2,664,278,-398,20,-310,207,16335,0
2,665,382,424,-246,-100,226,16106,0
2,666,210,-166,-166,-82,262,16009,0
2,667,-184,-98,-1156,-88,251,15828,0
2,668,-94,-16,-120,-101,287,15875,0
2,669,-94,1046,722,-149,258,16042,0
2,670,-240,1012,88,-324,251,16144,0
2,671,-442,284,250,-310,272,16261,0
2,672,-152,-154,446,-398,273,16301,0
2,673,-408,78,134,-228,211,16251,0
2,674,-288,272,-558,-170,70,16081,0
2,675,276,-144,-72,-149,-46,16085,0
2,676,-420,-86,308,-138,-71,16121,0
2,677,110,64,-16,-101,41,16159,0
2,678,-254,-270,-4,-192,173,16185,0
2,679,30,448,30,-355,217,16236,0
2,680,-206,158,492,-303,106,16108,0
2,681,30,526,-558,-158,80,16126,0
2,682,-128,-340,-742,-139,-9,16199,0
2,683,368,-340,458,-211,80,16260,0
2,684,144,-236,-130,-193,135,16049,0
2,685,-194,516,-280,-285,282,16101,0
2,686,-96,330,-316,-257,239,16121,0
2,687,-162,-200,158,-244,136,16074,0
2,688,64,-490,-338,-32,145,16065,0
2,689,-26,526,-350,-21,100,16046,0
2,690,-80,368,376,-190,118,16117,0
2,691,-70,654,-476,-246,95,16012,0
2,692,-286,168,8,-327,119,15992,0
2,693,-308,400,458,-197,185,15983,0
2,694,-352,538,54,-293,325,16125,0
2,695,-84,226,42,-365,318,16261,0
2,696,-172,402,-84,-382,264,16213,0
2,697,132,-292,596,-370,116,16306,0
2,698,86,-282,-326,-414,138,16293,0
2,699,-28,-374,-326,-208,47,16202,0
2,700,266,-236,354,-140,46,16022,0
2,701,8,-350,-154,-23,40,15970,0
2,702,-150,90,-222,-195,30,16085,0
2,703,8,-248,192,-240,41,16184,0
2,704,-82,-28,-614,-265,100,16136,0
2,705,-94,-62,-222,-222,150,16182,0
2,706,220,446,-418,-299,154,16119,0
2,707,-4,-328,838,-291,149,16083,0
2,708,-252,-270,-350,-233,82,16114,0
2,709,-104,-860,308,-254,-21,16145,0
2,710,54,-628,146,-235,23,16196,0
2,711,8,-720,-304,-233,112,16163,0
2,712,20,-108,-430,-246,196,16110,0
2,713,188,434,-500,-289,253,16087,0
2,714,-48,-374,-154,-361,220,16153,0
2,715,-72,-120,-512,-428,187,16129,0
2,716,234,-294,204,-234,183,16268,0
2,717,-14,100,388,-204,123,15885,0
2,718,-254,-224,376,-358,137,16127,0
2,719,-104,-788,100,-400,78,16177,0
2,720,110,470,-430,-315,164,16176,0
2,721,84,-802,-84,-245,177,16140,0
2,722,-48,-420,-672,-145,241,16062,0
2,723,8,192,-176,-196,187,16084,0
2,724,-172,-4,-188,-250,189,16070,0
2,725,-354,-652,-534,-393,176,16175,0
2,726,-228,-408,-130,-369,112,16130,0
2,727,-386,-546,88,-338,166,16117,0
2,728,-194,-478,216,-241,159,16068,0
2,729,210,-328,30,-260,155,16083,0
2,730,-172,492,-372,-341,154,16130,0
2,731,-174,-536,-200,-415,104,16198,0
2,732,302,284,-1054,-436,49,16214,0
2,733,-220,-4,-188,-471,149,16186,0
2,734,-38,-524,330,-345,188,16117,0
2,735,-522,-316,158,-189,166,15925,0
2,736,-150,-998,296,-199,116,16042,0
2,737,-16,458,-626,-261,88,16082,0
2,738,-38,584,-268,-322,52,16063,0
2,739,-82,124,-396,-344,141,16234,0
2,740,-130,64,-154,-449,154,16263,0
2,741,-352,-478,-38,-347,257,16119,0
2,742,42,-4,192,-304,242,16166,0
2,743,-140,-814,146,-320,185,16106,0
2,744,-342,-1240,250,-318,86,16114,0
2,745,-96,296,-258,-290,48,16135,0
2,746,84,-686,54,-252,56,16069,0
2,747,8,54,-592,-267,88,16119,0
2,748,-184,214,-362,-390,92,16131,0
2,749,-228,-710,-1054,-432,117,16159,0
2,750,86,-398,-16,-520,128,16266,0
2,751,-14,-964,216,-425,119,16202,0
2,752,166,-4,-822,-320,143,16135,0
2,753,96,-120,238,-256,157,15985,0
2,754,-186,-594,446,-185,192,15851,0
2,755,-82,42,158,-268,227,15926,0
2,756,-186,-98,20,-314,151,16057,0
2,757,-330,816,642,-264,136,16134,0
2,758,84,-444,-26,-274,92,16203,0
2,759,-26,-4,-1088,-396,192,16118,0
2,760,-352,308,-708,-410,196,16035,0
2,761,-352,64,330,-466,210,16058,0
2,762,-150,550,-212,-469,94,16187,0
2,763,52,-236,-326,-465,240,16207,0
2,764,96,-16,700,-343,38,16207,0
2,765,98,-316,-72,-207,36,16375,0
2,766,166,-892,-1006,-430,59,16126,0
2,767,74,458,-326,-398,153,16217,0
2,768,62,-316,-108,-539,117,16227,0
2,769,6,-362,-604,-440,172,16134,0
2,770,-162,134,-708,-393,195,16084,0
2,771,548,-144,42,-240,95,15940,0
2,772,64,-28,-316,-373,186,16077,0
2,773,-254,-86,-638,-457,134,16167,0
2,774,98,758,320,-516,306,16222,0
2,775,200,-212,134,-503,187,16169,0
2,776,30,-652,-800,-423,166,16186,0
2,777,142,238,-522,-267,209,16037,0
2,778,-286,18,-464,-201,237,15943,0
2,779,-206,170,-754,-264,191,15893,0
3,780,-988,272,-214,-128,129,15990,0
3,781,-828,-720,-84,-341,120,16025,0
3,782,-728,-606,-18,-137,219,16012,0
3,783,-230,-154,-292,-68,202,16124,0
3,784,-222,-698,178,30,99,16211,0
3,785,96,18,320,38,84,16057,0
3,786,186,-120,-176,106,34,16078,0
3,787,-4,-202,480,143,72,16101,0
3,788,-288,226,-626,69,155,16190,0
3,789,96,192,-222,137,107,16178,0
3,790,96,-582,434,-18,129,16207,0
3,791,6,204,400,-85,32,16061,0
3,792,-210,6,-328,-320,34,16125,0
3,793,-256,-178,-178,-281,94,16256,0
3,794,-42,-284,282,-226,242,16228,0
3,795,8,100,-718,-82,219,16170,0
3,796,16,-50,-374,123,342,16183,0
3,797,-230,422,-16,155,146,16023,0
3,798,-28,-536,-868,138,73,15925,0
3,799,-84,-258,250,76,97,16031,0
3,800,198,-768,330,-77,55,16224,0
3,801,108,-236,-430,-155,20,16182,0
3,802,128,-1230,444,-85,112,16264,0
3,803,-296,-502,838,-33,176,16289,0
3,804,50,-270,-64,55,217,16126,0
3,805,-166,-352,18,58,190,16019,0
3,806,-154,504,214,137,142,16152,0
3,807,130,204,-130,5,161,16274,0
3,808,-290,-560,-18,-73,168,16124,0
3,809,-72,-86,366,-51,273,16044,0
3,810,-50,-40,-108,-122,266,16010,0
3,811,198,-512,-442,-64,148,15974,0
3,812,320,308,-248,-60,128,16138,0
3,813,-30,-294,-340,-51,169,16142,0
3,814,-142,-248,-478,-177,201,16204,0
3,815,-74,-386,-98,-167,196,16322,0
3,816,-220,-872,-200,-36,310,16231,0
3,817,150,-64,-132,44,258,16250,0
3,818,-264,30,-96,57,130,16091,0
3,819,254,-456,-50,125,135,15957,0
3,820,196,134,-318,47,62,15894,0
3,821,-164,-270,100,88,57,16086,0
3,822,-98,308,720,-18,121,16280,0
3,823,330,400,260,-144,122,16385,0
3,824,-14,-270,-84,-222,92,16270,0
3,825,198,-270,-84,-178,59,16140,0
3,826,96,-294,446,-112,136,16027,0
3,827,4,-882,-466,30,195,16009,0
3,828,366,458,-580,202,409,16078,0
3,829,-346,-386,40,175,395,16225,0
3,830,176,388,-430,-3,226,16165,0
3,831,198,758,-338,-145,174,16158,0
3,832,-30,-224,686,-298,119,16170,0
3,833,196,42,490,-263,108,16073,0
3,834,28,-512,-476,-66,161,16136,0
3,835,18,30,-142,54,195,16096,0
3,836,-62,-306,192,79,211,16029,0
3,837,-164,250,-718,-28,249,15995,0
3,838,60,398,-514,-101,171,16070,0
3,839,300,-710,146,-100,180,16258,0
3,840,-322,-352,-18,-24,287,16298,0
3,841,-164,-166,170,1,318,16183,0
3,842,-186,-202,-350,14,306,16093,0
3,843,-230,-178,308,-107,275,16094,0
3,844,6,-732,42,-71,261,15997,0
3,845,-84,110,-176,52,346,16098,0
3,846,38,-398,260,91,310,16139,0
3,847,-18,88,-524,39,215,16092,0
3,848,94,30,-478,-127,143,16118,0
3,849,232,-408,112,-291,107,16173,0
3,850,302,-824,-454,-212,142,16206,0
3,851,106,-700,664,-147,245,16208,0
3,852,-310,-502,584,37,234,16222,0
3,853,-120,-248,-524,105,236,16183,0
3,854,116,110,-386,22,225,15936,0
3,855,-18,-628,514,-54,177,15874,0
3,856,52,146,-16,-29,162,16079,0
3,857,-54,178,364,-26,217,16273,0
3,858,-28,-352,746,3,232,16322,0
3,859,364,-362,178,-33,137,16277,0
3,860,38,-352,64,-62,185,16237,0
3,861,72,88,524,-117,146,16076,0
3,862,-84,-548,134,-60,232,16061,0
3,863,-64,-190,-732,-27,354,16096,0
3,864,228,-284,-478,-94,375,16176,0
3,865,54,-248,308,-83,285,16109,0
3,866,-62,-502,-718,-134,191,16236,0
3,867,28,-248,-212,-42,216,16221,0
3,868,-108,-98,306,3,266,16200,0
3,869,74,412,8,26,272,16080,0
3,870,-28,-166,-222,55,229,16082,0
3,871,-200,260,-28,43,202,16033,0
3,872,16,-18,364,-106,141,16073,0
3,873,50,64,-386,-113,149,16171,0
3,874,116,-202,-122,-134,237,16214,0
3,875,-106,-512,826,-138,294,16194,0
3,876,-62,18,-384,-114,275,16136,0
3,877,150,52,-524,-69,213,16053,0
3,878,-164,-86,366,-51,290,16069,0
3,879,-514,-478,-98,-12,386,16150,0
3,880,-176,-376,-652,10,393,16187,0
3,881,-28,630,88,55,298,16183,0
3,882,-142,678,28,-87,210,16214,0
3,883,-18,144,-224,-284,75,16117,0
3,884,18,158,-142,-290,176,16069,0
3,885,-344,-212,630,-156,257,16125,0
3,886,18,-166,-108,-42,341,16095,0
3,887,-132,388,-122,31,286,16112,0
3,888,186,434,284,-13,181,16128,0
3,889,-118,64,100,10,128,16168,0
3,890,-6,30,-1146,-119,195,16197,0
3,891,-208,-4,-500,-289,185,16116,0
3,892,-254,-1148,-176,-221,182,16032,0
3,893,164,-616,-200,-174,246,16021,0
3,894,-84,376,-62,39,324,16036,0
3,895,-538,-652,-18,-26,333,16051,0
3,896,140,308,74,-109,231,16202,0
3,897,174,-432,28,-309,167,16200,0
3,898,-300,-4,594,-143,189,16211,0
3,899,-166,-236,306,-119,212,16257,0
3,900,-42,-226,-168,-35,164,16116,0
3,901,-144,62,674,-25,180,16121,0
3,902,-142,-178,-352,-43,200,16008,0
3,903,38,-608,178,-29,90,16068,0
3,904,84,-224,-176,-40,155,16117,0
3,905,6,-86,146,-35,126,16185,0
3,906,118,-374,-558,-51,217,16208,0
3,907,-74,190,-444,-246,261,16220,0
3,908,152,-98,642,-248,277,16225,0
3,909,-132,-294,144,-261,240,16250,0
3,910,240,-456,-74,-66,250,16123,0
3,911,-62,-386,192,209,360,16039,0
3,912,-8,-408,-306,156,301,15924,0
3,913,-18,-446,-156,20,276,16108,0
3,914,-86,190,144,-177,289,16125,0
3,915,-222,-258,-64,-173,297,16262,0
3,916,-84,250,-638,-47,301,16187,0
3,917,94,-282,-524,24,280,16136,0
3,918,82,-146,-236,-169,178,16039,0
3,919,-40,-258,-614,-268,68,16020,0
3,920,-154,-362,-28,-316,145,16062,0
3,921,-16,-420,400,-241,202,16048,0
3,922,174,-446,-64,79,345,16111,0
3,923,174,-492,536,206,273,16198,0
3,924,50,-606,502,143,228,16077,0
3,925,-8,-270,-466,52,249,16078,0
3,926,-142,132,-352,-59,221,16136,0
3,927,-18,654,74,-145,278,16225,0
3,928,-42,-480,236,-194,242,16176,0
3,929,150,64,-594,-108,252,16117,0
3,930,198,-144,-742,-82,208,15970,0
3,931,162,-202,386,-100,214,16170,0
3,932,50,168,570,-172,279,16228,0
3,933,58,-30,122,-211,355,16222,0
3,934,-8,-352,190,-180,395,16158,0
3,935,-132,-388,122,-139,356,16147,0
3,936,16,-144,374,-101,191,16122,0
3,937,150,62,468,-75,179,16065,0
3,938,106,-144,374,-38,110,16095,0
3,939,108,-236,-512,-33,110,16048,0
3,940,130,18,100,-62,201,16168,0
3,941,196,-374,248,-102,252,16149,0
3,942,130,-154,20,-91,323,16183,0
3,943,60,-120,-236,-96,343,16157,0
3,944,298,-790,-122,-162,305,16005,0
3,945,320,-108,-410,-83,353,15976,0
3,946,36,-376,-52,21,402,16000,0
3,947,4,-480,98,-49,386,16204,0
3,948,288,-408,-246,-130,307,16134,0
3,949,332,-248,-408,-269,90,16095,0
3,950,242,-1564,88,-399,90,16152,0
3,951,52,-224,526,-118,311,16254,0
3,952,-86,-270,40,-38,394,16203,0
3,953,94,-294,236,227,657,16189,0
3,954,-130,76,-120,234,639,16172,0
3,955,-190,-816,-156,32,447,16155,0
3,956,4,-434,64,-56,441,16083,0
3,957,-88,-572,-6,-121,390,16134,0
3,958,-254,-294,-662,-109,401,16126,0
3,959,298,-76,122,-85,312,16128,0
3,960,-74,-258,-306,-74,289,16027,0
3,961,152,-420,-868,-23,234,15978,0
3,962,16,-62,-478,44,282,16091,0
3,963,-42,-778,340,-11,245,16219,0
3,964,38,-420,-456,-60,258,16329,0
3,965,176,88,250,-14,232,16228,0
3,966,-312,64,-74,83,270,16220,0
3,967,252,54,28,186,298,16153,0
3,968,-74,-238,-570,334,392,16037,0
3,969,-72,180,-338,260,355,15967,0
3,970,-144,-388,-432,66,283,15978,0
3,971,150,86,-594,-106,310,16083,0
3,972,26,-168,-98,-259,324,16131,0
3,973,-368,-882,6,-115,440,16200,0
3,974,-198,64,86,-88,534,16198,0
3,975,-64,18,52,-34,459,16108,0
3,976,-152,-4,204,-78,432,16137,0
3,977,-28,-548,-522,-1,427,16072,0
3,978,18,-40,-326,23,382,16102,0
3,979,-52,-284,478,-16,426,16105,0
3,980,-258,386,28,-79,393,16122,0
3,981,16,-156,-98,-98,370,16190,0
3,982,94,630,-364,-134,369,16145,0
3,983,-70,-190,-16,-38,386,16133,0
3,984,-54,-284,-606,11,390,16068,0
3,985,-84,110,-500,-57,349,16062,0
3,986,-44,202,-190,-124,324,16043,0
3,987,-122,178,-420,-176,290,16140,0
3,988,-18,422,-306,-170,255,16184,0
3,989,150,-178,502,-105,240,16171,0
3,990,14,-146,-444,-42,267,16031,0
3,991,-42,-282,478,63,295,16058,0
3,992,-186,388,562,42,366,16135,0
3,993,38,-272,-214,-12,377,16171,0
3,994,254,-40,-16,-118,378,16179,0
3,995,-154,516,398,-134,439,16233,0
3,996,150,-62,328,-156,493,16118,0
3,997,-98,-664,-306,-143,425,16039,0
3,998,-230,330,180,-178,352,16051,0
3,999,50,122,-364,-194,247,16008,0
3,1000,60,-132,-18,-61,353,16161,0
3,1001,-10,-376,248,-116,370,16177,0
3,1002,72,238,110,-144,321,16132,0
3,1003,-130,-640,-4,-71,399,16142,0
3,1004,92,478,-364,-45,375,16093,0
3,1005,52,272,-372,-3,365,16121,0
3,1006,-196,-74,-384,-45,367,16070,0
3,1007,-18,-374,-214,-131,360,16148,0
3,1008,16,-446,40,-210,313,16231,0
3,1009,208,-40,-442,-184,392,16218,0
3,1010,-222,366,-328,-99,490,16087,0
3,1011,-166,64,110,-112,432,15970,0
3,1012,-142,122,-270,-185,318,15941,0
3,1013,114,74,-248,-284,289,16046,0
3,1014,-40,-108,320,-239,381,16156,0
3,1015,50,-434,-570,-98,485,16219,0
3,1016,-64,-180,-202,-109,476,16225,0
3,1017,-30,-50,214,-167,400,16235,0
3,1018,-64,238,64,-190,395,16061,0
3,1019,-66,-214,-132,-177,399,16052,0
3,1020,-130,318,54,-54,355,16058,0
3,1021,342,434,-122,-24,333,16060,0
3,1022,-334,-1000,-156,-86,300,16048,0
3,1023,62,204,238,-211,270,16175,0
3,1024,164,504,192,-333,302,16158,0
3,1025,-188,-538,340,-327,470,16259,0
3,1026,-28,-154,88,-183,483,16251,0
3,1027,-244,146,-318,-72,481,16054,0
3,1028,-132,-260,86,8,416,16006,0
3,1029,52,366,124,-13,456,15936,0
3,1030,-242,-50,-258,7,474,16097,0
3,1031,-230,192,-846,-89,454,16143,0
3,1032,-154,156,-340,-159,362,16221,0
3,1033,-412,-294,-4,-269,274,16233,0
3,1034,4,-190,-778,-352,213,16270,0
3,1035,24,-296,-86,-341,264,16124,0
3,1036,-50,168,54,-218,347,16053,0
3,1037,-30,366,122,-19,416,15996,0
3,1038,-20,-226,306,158,458,16092,0
3,1039,62,214,250,26,417,16086,0
4,1040,-78,-136,248,-178,-131,16262,0
4,1041,182,1184,524,-186,111,16257,0
4,1042,216,676,1274,-113,144,16269,0
4,1043,-226,-44,410,106,33,16117,0
4,1044,-676,834,-18,59,175,16075,0
4,1045,-156,-42,-1136,-366,-253,16316,0
4,1046,-226,1090,110,-306,-449,16279,0
4,1047,-168,686,-294,-257,-217,16359,0
4,1048,80,-250,-18,-159,-107,16299,0
4,1049,112,-148,548,-370,-90,16370,0
4,1050,2,-134,-294,-327,49,16301,0
4,1051,-190,-388,-664,-321,23,16121,0
4,1052,-100,316,-86,-298,-24,16169,0
4,1053,-102,-102,-110,-372,1,16206,0
4,1054,36,144,-628,-171,65,16318,0
4,1055,-194,292,-790,-169,104,16437,0
4,1056,-224,352,-524,-214,-73,16374,0
4,1057,-36,786,-768,-335,-233,16248,0
4,1058,-270,-378,-224,-178,-149,16040,0
4,1059,-262,142,-86,-267,-209,16101,0
4,1060,292,280,-318,-484,-365,16131,0
4,1061,-126,-390,-18,-404,-145,16225,0
4,1062,306,-122,490,-277,-12,16263,0
4,1063,-122,410,-40,-160,108,16210,0
4,1064,-136,-540,-466,-139,86,16197,0
4,1065,-280,906,110,-244,-15,16169,0
4,1066,-46,-252,-306,-305,-175,16216,0
4,1067,-302,190,-444,-356,-259,16245,0
4,1068,268,210,294,-575,-488,16293,0
4,1069,-136,-170,-64,-434,-99,16346,0
4,1070,-112,-332,-364,-292,215,16333,0
4,1071,-260,362,-490,-271,223,16219,0
4,1072,-326,-66,190,-222,-14,16130,0
4,1073,-48,580,-616,-510,-278,16141,0
4,1074,-110,74,-364,-500,-341,16136,0
4,1075,-22,408,444,-330,-270,16318,0
4,1076,46,418,98,-299,13,16402,0
4,1077,-350,-310,-178,-282,88,16426,0
4,1078,-644,268,96,-450,11,16355,0
4,1079,-282,60,-110,-604,-258,16160,0
4,1080,-584,-618,28,-568,-255,16009,0
4,1081,-122,-42,778,-584,-313,16037,0
4,1082,68,-344,202,-552,-30,16225,0
4,1083,-464,-66,144,-461,16,16239,0
4,1084,-810,212,168,-404,87,16253,0
4,1085,-768,-206,72,-582,-124,16275,0
4,1086,-600,-102,-366,-476,-186,16202,0
4,1087,-506,248,-616,-377,-204,16105,0
4,1088,-542,626,28,-427,-252,16203,0
4,1089,-826,60,-466,-395,-188,16313,0
4,1090,-588,222,-514,-413,-317,16352,0
4,1091,-324,-204,328,-543,-528,16214,0
4,1092,-170,476,-374,-505,-268,16368,0
4,1093,-192,-818,294,-613,-317,16259,0
4,1094,-160,-158,606,-549,-370,16127,0
4,1095,20,638,-74,-421,-144,16067,0
4,1096,-418,222,18,-434,-239,16099,0
4,1097,-418,258,248,-426,-204,16309,0
4,1098,-462,164,456,-455,-279,16374,0
4,1099,-544,-344,98,-714,-596,16310,0
4,1100,-148,-228,778,-619,-503,16393,0
4,1101,-160,164,-282,-516,-200,16295,0
4,1102,-340,-346,-170,-533,-249,16225,0
4,1103,-228,-102,352,-587,-375,16160,0
4,1104,-486,522,258,-537,-172,16195,0
4,1105,-318,-450,-538,-578,-242,16184,0
4,1106,-780,720,-306,-613,-351,16161,0
4,1107,-370,166,-98,-754,-644,16147,0
4,1108,-394,-20,64,-736,-667,16209,0
4,1109,-250,396,-122,-576,-307,16345,0
4,1110,-406,-206,720,-701,-394,16390,0
4,1111,-282,304,490,-646,-349,16324,0
4,1112,-792,-320,294,-550,-175,16249,0
4,1113,-1060,-262,766,-579,-214,16280,0
4,1114,-970,1090,260,-644,-472,16127,0
4,1115,-948,118,6,-860,-758,16185,0
4,1116,-520,488,560,-745,-644,16110,0
4,1117,-396,82,166,-660,-570,16220,0
4,1118,-702,26,-352,-603,-353,16364,0
4,1119,-828,1504,-400,-571,-206,16528,0
4,1120,-1318,456,-18,-664,-375,16383,0
4,1121,-1062,1204,-250,-746,-749,16297,0
4,1122,-994,474,-100,-991,-971,16186,0
4,1123,-1062,200,190,-861,-865,16163,0
4,1124,-600,-20,836,-965,-818,16238,0
4,1125,-858,-32,168,-929,-670,16165,0
4,1126,-678,800,52,-786,-534,16037,0
4,1127,-848,754,212,-729,-600,16060,0
4,1128,-1152,-148,178,-948,-765,16231,0
4,1129,-814,846,202,-1109,-1046,16275,0
4,1130,-428,-112,432,-1168,-1289,16282,0
4,1131,-744,626,-306,-1088,-976,16250,0
4,1132,-654,720,-328,-972,-875,16262,0
4,1133,-936,326,606,-1026,-741,16160,0
4,1134,-498,128,338,-984,-818,16142,0
4,1135,-272,-32,-226,-1080,-1220,16044,0
4,1136,-58,60,524,-1098,-1172,16206,0
4,1137,-204,-32,6,-1079,-1049,16208,0
4,1138,-58,-424,130,-1175,-1083,16259,0
4,1139,136,-32,-64,-1153,-1170,16173,0
4,1140,-76,-896,-190,-978,-961,16268,0
4,1141,-228,164,-8,-779,-690,16262,0
4,1142,-372,558,-318,-776,-690,16213,0
4,1143,-396,292,168,-960,-928,16166,0
4,1144,-352,764,212,-1100,-1063,16167,0
4,1145,-284,-78,84,-1240,-1209,16175,0
4,1146,-2,-44,534,-1278,-1356,16163,0
4,1147,-14,-380,212,-1120,-1111,16214,0
4,1148,126,-422,-374,-1119,-987,16262,0
4,1149,-70,408,-42,-1147,-865,16235,0
4,1150,34,-90,-236,-1051,-767,16212,0
4,1151,-236,84,-582,-990,-809,16233,0
4,1152,-386,38,454,-1111,-1068,16216,0
4,1153,-68,96,156,-1175,-1158,16124,0
4,1154,-110,16,-364,-1125,-1237,16167,0
4,1155,144,176,-144,-1080,-1107,16181,0
4,1156,180,-112,398,-1096,-1055,16150,0
4,1157,416,72,62,-1086,-996,16142,0
4,1158,-14,14,248,-1045,-925,16199,0
4,1159,-48,-276,-76,-1053,-970,16174,0
4,1160,314,-528,188,-1165,-1080,16191,0
4,1161,200,-332,-54,-1076,-880,16278,0
4,1162,156,188,132,-1046,-700,16282,0
4,1163,-216,-54,-214,-1044,-730,16234,0
4,1164,-180,118,-836,-1181,-808,16154,0
4,1165,178,268,-342,-1210,-1061,16145,0
4,1166,-80,50,-388,-1140,-989,16194,0
4,1167,-148,220,-468,-1122,-993,16245,0
4,1168,280,-230,-8,-1209,-1059,16333,0
4,1169,156,-610,-158,-1115,-935,16272,0
4,1170,-92,-216,-698,-1023,-856,16217,0
4,1171,-138,-54,364,-1074,-862,16199,0
4,1172,-114,198,408,-1054,-875,16071,0
4,1173,-114,558,-216,-1067,-982,16059,0
4,1174,32,-508,-20,-1091,-849,16198,0
4,1175,32,116,154,-1118,-914,16197,0
4,1176,100,-114,38,-1235,-998,16243,0
4,1177,-34,-886,-306,-1226,-988,16222,0
4,1178,122,152,-238,-1142,-879,16276,0
4,1179,268,60,176,-1029,-873,16114,0
4,1180,-160,60,-420,-1030,-811,16151,0
4,1181,100,96,-802,-1141,-870,16218,0
4,1182,10,384,-412,-1018,-889,16189,0
4,1183,20,258,-654,-1126,-964,16236,0
4,1184,-48,140,96,-1111,-875,16146,0
4,1185,20,-22,246,-1159,-934,16171,0
4,1186,-2,142,-270,-1119,-968,16230,0
4,1187,-172,-242,-284,-1054,-964,16205,0
4,1188,-160,-252,720,-1101,-900,16305,0
4,1189,10,210,18,-1188,-1109,16183,0
4,1190,10,-494,74,-1157,-1136,16181,0
4,1191,-58,326,110,-1086,-838,16255,0
4,1192,-24,-262,-320,-1032,-772,16130,0
4,1193,-354,-114,-8,-1078,-753,16084,0
4,1194,-138,256,72,-1096,-872,16077,0
4,1195,-24,-252,-308,-1265,-1237,16216,0
4,1196,66,-10,-908,-1286,-1141,16323,0
4,1197,122,-170,-444,-1196,-960,16344,0
4,1198,54,-208,-170,-1186,-853,16230,0
4,1199,-328,-182,-734,-1112,-769,16155,0
4,1200,-216,72,-284,-1087,-824,16025,0
4,1201,-60,-242,-158,-1073,-903,16115,0
4,1202,-182,-20,-124,-1063,-1001,16193,0
4,1203,258,-402,-398,-1087,-977,16218,0
4,1204,88,-346,246,-1212,-1024,16331,0
4,1205,404,154,-272,-1152,-994,16222,0
4,1206,-80,84,4,-1132,-928,16136,0
4,1207,-58,568,222,-1103,-876,16174,0
4,1208,-328,-690,72,-1144,-897,16155,0
4,1209,-114,-218,-538,-1151,-977,16168,0
4,1210,-4,348,-42,-1120,-962,16136,0
4,1211,190,234,-6,-1171,-953,16207,0
4,1212,176,-80,-54,-1209,-893,16252,0
4,1213,246,36,50,-1207,-827,16239,0
4,1214,-250,-194,-420,-1091,-864,16156,0
4,1215,-114,778,-248,-1127,-982,16245,0
4,1216,-138,-182,-42,-1200,-964,16281,0
4,1217,44,-8,166,-1171,-1036,16240,0
4,1218,122,-78,-642,-1192,-858,16168,0
4,1219,168,-310,-330,-1237,-868,16184,0
4,1220,20,234,652,-1128,-862,16127,0
4,1221,66,394,-76,-1129,-827,16117,0
4,1222,-272,-8,-236,-1091,-829,16180,0
4,1223,20,-126,234,-1212,-874,16264,0
4,1224,-272,-170,-76,-1190,-955,16287,0
4,1225,-24,-436,-100,-1199,-1001,16280,0
4,1226,-12,14,86,-1264,-991,16249,0
4,1227,-114,256,-250,-1255,-947,16187,0
4,1228,156,220,-618,-1237,-928,16111,0
4,1229,64,-104,-238,-1280,-890,16188,0
4,1230,246,-90,-170,-1163,-863,16153,0
4,1231,20,-436,212,-1244,-837,16174,0
4,1232,10,304,352,-1186,-888,16231,0
4,1233,-148,280,350,-1135,-835,16207,0
4,1234,-114,-704,-76,-1176,-922,16199,0
4,1235,52,-254,-134,-1118,-949,16159,0
4,1236,8,-242,108,-1165,-912,16192,0
4,1237,358,48,4,-1185,-916,16221,0
4,1238,10,-66,96,-1191,-830,16291,0
4,1239,76,-104,614,-1247,-883,16224,0
4,1240,-126,140,-712,-1271,-885,16211,0
4,1241,44,96,-74,-1292,-904,16112,0
4,1242,258,442,-86,-1241,-786,16185,0
4,1243,-48,-300,-480,-1343,-950,16224,0
4,1244,268,-206,190,-1204,-872,16114,0
4,1245,66,24,108,-1125,-823,16227,0
4,1246,-82,-80,-262,-1144,-795,16277,0
4,1247,-114,-68,-320,-1175,-880,16204,0
4,1248,100,-542,-204,-1139,-812,16213,0
4,1249,-214,-482,-732,-1277,-844,16201,0
4,1250,-36,266,-88,-1224,-847,16127,0
4,1251,8,-508,-146,-1354,-1003,16258,0
4,1252,98,128,-376,-1316,-1128,16199,0
4,1253,-2,-10,-238,-1205,-1021,16241,0
4,1254,200,-472,4,-1222,-844,16199,0
4,1255,134,26,-20,-1181,-756,16198,0
4,1256,100,-10,-170,-1113,-757,16111,0
4,1257,-204,-528,272,-1189,-800,16202,0
4,1258,66,-310,-698,-1344,-955,16279,0
4,1259,246,-690,-20,-1309,-929,16258,0
4,1260,64,-392,500,-1332,-915,16240,0
4,1261,-150,12,-204,-1242,-831,16174,0
4,1262,232,-322,-146,-1206,-716,16228,0
4,1263,-48,2,258,-1243,-823,16139,0
4,1264,224,372,-178,-1291,-957,16088,0
4,1265,-262,-726,-388,-1203,-841,16193,0
4,1266,-24,116,316,-1246,-799,16190,0
4,1267,-396,106,-248,-1226,-928,16138,0
4,1268,-24,-690,-66,-1237,-1003,16180,0
4,1269,358,-472,-366,-1218,-967,16307,0
4,1270,312,-10,222,-1220,-856,16294,0
4,1271,300,-842,-296,-1245,-870,16219,0
4,1272,178,-66,594,-1217,-725,16166,0
4,1273,382,-230,-180,-1260,-764,16175,0
4,1274,-14,-554,-666,-1283,-750,16242,0
4,1275,-4,104,-180,-1274,-713,16181,0
4,1276,-38,198,84,-1216,-670,16114,0
4,1277,-114,-472,-308,-1211,-678,16188,0
4,1278,-36,162,316,-1295,-841,16249,0
4,1279,-58,-22,-262,-1301,-940,16225,0
4,1280,200,-334,-562,-1363,-953,16293,0
4,1281,212,-230,-422,-1286,-862,16228,0
4,1282,86,-774,488,-1229,-719,16205,0
4,1283,-80,130,-412,-1225,-700,16143,0
4,1284,-104,-104,26,-1266,-723,16164,0
4,1285,-116,-414,-204,-1291,-790,16281,0
4,1286,-126,198,4,-1372,-866,16182,0
4,1287,-104,-670,222,-1313,-873,16126,0
4,1288,258,-554,568,-1281,-818,16200,0
4,1289,142,452,-192,-1257,-723,16195,0
4,1290,-240,0,-8,-1218,-677,16244,0
4,1291,-230,70,84,-1257,-803,16280,0
4,1292,8,36,-158,-1353,-1021,16224,0
4,1293,-14,-508,304,-1355,-920,16185,0
4,1294,44,324,-192,-1320,-858,16278,0
4,1295,156,-104,108,-1334,-825,16155,0
4,1296,144,256,-446,-1212,-743,16176,0
4,1297,88,-312,62,-1254,-668,16156,0
4,1298,122,-320,38,-1246,-705,16255,0
4,1299,-60,-830,-618,-1248,-809,16207,0
5,1300,-574,392,-552,293,249,16200,0
5,1301,-1102,138,-446,108,-58,16251,0
5,1302,-1024,-82,-172,-18,-386,16364,0
5,1303,-426,-498,360,-219,-710,16432,0
5,1304,-210,-498,466,-342,-895,16286,0
5,1305,-156,-324,1154,-124,-849,16232,0
5,1306,-212,-338,452,72,-634,16513,0
5,1307,-686,-672,590,147,-167,16754,0
5,1308,-574,-440,798,62,-39,16793,0
5,1309,-112,68,-160,55,-92,16842,0
5,1310,-122,194,-552,89,-195,16680,0
5,1311,190,528,-206,-148,-668,16347,0
5,1312,554,-24,256,-176,-963,16076,0
5,1313,80,-4,-322,-16,-571,16203,0
5,1314,-236,196,-126,44,-245,16277,0
5,1315,-506,-406,-172,-75,-382,16297,0
5,1316,-238,8,314,-250,-510,16354,0
5,1317,24,554,118,-232,-565,16261,0
5,1318,-8,-984,696,-117,-512,16248,0
5,1319,58,-728,394,-15,-552,16275,0
5,1320,102,-752,94,70,-511,16183,0
5,1321,172,102,614,80,-496,16278,0
5,1322,420,300,234,-40,-455,16327,0
5,1323,48,-406,16,-199,-271,16393,0
5,1324,-236,506,324,-47,-387,16216,0
5,1325,4,462,314,-72,-703,16159,0
5,1326,-156,-486,210,-19,-674,16145,0
5,1327,-258,-454,-482,66,-427,16267,0
5,1328,-112,-544,-436,-46,-307,16428,0
5,1329,-552,-754,-436,-73,-507,16502,0
5,1330,-382,842,-286,-207,-679,16522,0
5,1331,194,-844,362,-65,-647,16443,0
5,1332,476,-302,-480,-144,-659,16320,0
5,1333,4,358,-54,-70,-495,16129,0
5,1334,-212,-324,164,-94,-487,16081,0
5,1335,-280,-174,336,-116,-458,16202,0
5,1336,-268,184,72,-117,-547,16341,0
5,1337,-122,-94,1190,-192,-611,16298,0
5,1338,420,160,-286,-142,-615,16164,0
5,1339,94,-1088,546,-77,-568,16171,0
5,1340,116,-706,774,259,-559,16294,0
5,1341,-190,-520,-194,201,-309,16357,0
5,1342,-382,-624,-402,197,-145,16466,0
5,1343,-166,-210,-148,117,-462,16570,0
5,1344,-246,138,-402,-180,-959,16528,0
5,1345,128,-1364,84,-241,-1052,16455,0
5,1346,722,-326,-126,-103,-724,16565,0
5,1347,272,-822,70,-51,-349,16525,0
5,1348,-56,-556,-494,25,-429,16534,0
5,1349,58,714,-402,-59,-535,16480,0
5,1350,206,68,-332,-64,-609,16426,0
5,1351,128,288,-412,-96,-635,16306,0
5,1352,362,-416,-714,-171,-783,16178,0
5,1353,374,-464,2,-31,-681,16070,0
5,1354,2,-798,-368,77,-719,16095,0
5,1355,136,-106,-310,96,-621,16348,0
5,1356,-314,-234,268,12,-568,16470,0
5,1357,-134,-384,-44,-50,-431,16680,0
5,1358,-30,-568,370,-21,-448,16540,0
5,1359,170,194,-114,-82,-450,16331,0
5,1360,384,-26,452,-126,-571,16161,0
5,1361,622,-212,486,-58,-505,16145,0
5,1362,-112,-198,416,9,-401,16201,0
5,1363,-100,-82,14,-14,-529,16250,0
5,1364,-236,-338,-368,41,-437,16301,0
5,1365,-78,-280,24,192,-249,16349,0
5,1366,-212,90,-126,49,-227,16463,0
5,1367,-32,-534,-1002,62,-491,16430,0
5,1368,58,-304,-344,-6,-572,16461,0
5,1369,46,-220,-22,-164,-634,16466,0
5,1370,224,-766,486,-81,-719,16342,0
5,1371,746,-82,164,-36,-875,16384,0
5,1372,826,10,638,-140,-273,16415,0
5,1373,260,876,220,-44,-70,16322,0
5,1374,-170,402,336,-122,-252,16227,0
5,1375,56,598,440,-480,-598,16053,0
5,1376,306,346,232,-213,-572,15851,0
5,1377,-110,634,626,-119,-547,15950,0
5,1378,-148,-684,694,-75,-313,16085,0
5,1379,-260,54,578,19,-9,16329,0
5,1380,-180,-522,648,-60,-189,16586,0
5,1381,136,-416,856,19,-308,16740,0
5,1382,328,-510,128,-147,-499,16773,0
5,1383,532,-604,314,-40,-455,16769,0
5,1384,488,-370,464,-101,-457,16655,0
5,1385,486,-212,520,154,-307,16433,0
5,1386,68,-416,-414,252,58,16301,0
5,1387,100,-130,-668,216,150,16010,0
5,1388,418,-476,-460,156,15,15974,0
5,1389,-10,-474,-944,78,-184,15964,0
5,1390,496,-72,-1060,17,-482,16030,0
5,1391,78,-418,-840,-114,-646,16196,0
5,1392,-102,-154,-286,-171,-659,16402,0
5,1393,-212,-164,186,-252,-564,16470,0
5,1394,-494,-50,936,-161,-541,16478,0
5,1395,-596,450,464,-160,-409,16382,0
5,1396,-44,-348,556,-13,-97,16131,0
5,1397,-22,-292,740,61,152,16177,0
5,1398,-472,32,-182,99,187,16245,0
5,1399,-698,332,-828,44,-21,16437,0
5,1400,-398,344,-68,-192,-408,16514,0
5,1401,-460,1108,-10,-423,-451,16441,0
5,1402,-244,-48,-376,-388,-513,16311,0
5,1403,-34,274,-332,-384,-523,16358,0
5,1404,-44,-200,14,-268,-502,16178,0
5,1405,148,-662,-10,-139,-424,16243,0
5,1406,68,-164,82,-115,-294,16235,0
5,1407,408,-602,682,6,-161,16286,0
5,1408,496,-350,-402,-34,33,16368,0
5,1409,-12,124,-402,91,-11,16346,0
5,1410,-202,-362,-56,-66,-223,16387,0
5,1411,2,308,-494,-177,-337,16373,0
5,1412,216,-660,-136,-221,-303,16457,0
5,1413,284,-592,-182,-267,-355,16532,0
5,1414,406,-246,-518,-291,-422,16409,0
5,1415,100,286,-344,-279,-505,16340,0
5,1416,136,-212,648,-247,-406,16305,0
5,1417,46,378,590,-197,-430,16358,0
5,1418,-188,-48,754,-221,-529,16384,0
5,1419,46,-326,982,-252,-512,16426,0
5,1420,350,216,36,-151,-475,16364,0
5,1421,382,402,694,-157,-321,16327,0
5,1422,328,-720,406,-118,-179,16174,0
5,1423,90,-118,566,86,-110,16157,0
5,1424,-314,-810,106,73,-114,16218,0
5,1425,-214,-130,118,29,-97,16269,0
5,1426,-452,-384,118,-60,-119,16318,0
5,1427,-226,228,-356,-59,-389,16364,0
5,1428,250,-476,486,-193,-642,16316,0
5,1429,102,100,-32,-172,-682,16422,0
5,1430,272,-684,370,-160,-472,16626,0
5,1431,-10,-324,452,-134,-284,16740,0
5,1432,56,136,370,-57,-108,16554,0
5,1433,-114,216,-10,-18,-38,16275,0
5,1434,282,-362,382,24,-4,16035,0
5,1435,216,54,14,42,42,15924,0
5,1436,78,-326,186,-17,-179,15993,0
5,1437,44,332,578,-50,-520,16032,0
5,1438,-124,194,220,-13,-676,16228,0
5,1439,-486,-292,-148,4,-636,16494,0
5,1440,-924,92,14,-158,-382,16749,0
5,1441,-394,484,808,-136,-252,16702,0
5,1442,146,170,510,-154,-412,16484,0
5,1443,306,-96,-182,-93,-470,16324,0
5,1444,204,-118,-172,273,-55,16267,0
5,1445,386,-198,-504,346,228,16423,0
5,1446,292,100,-160,258,142,16435,0
5,1447,374,-338,-206,91,-107,16356,0
5,1448,880,-788,-910,-122,-444,16366,0
5,1449,430,8,-126,-184,-482,16149,0
5,1450,274,-660,-54,-148,-524,16127,0
5,1451,-440,436,-68,-230,-451,16008,0
5,1452,-574,-476,982,-88,-232,16143,0
5,1453,-540,32,856,91,56,16260,0
5,1454,-236,298,-240,95,41,16315,0
5,1455,-88,-142,-218,116,-174,16462,0
5,1456,-58,-408,416,-60,-377,16441,0
5,1457,382,-200,302,-209,-423,16453,0
5,1458,216,402,-298,-219,-319,16324,0
5,1459,202,620,440,-117,-359,16279,0
5,1460,224,366,232,-217,-235,16363,0
5,1461,-170,136,-44,-63,-332,16306,0
5,1462,-294,564,-10,-163,-310,16426,0
5,1463,-584,-362,290,-43,-224,16470,0
5,1464,-12,644,-264,61,-24,16375,0
5,1465,-226,-430,452,133,65,16333,0
5,1466,46,-636,370,149,-108,16272,0
5,1467,282,-408,-310,94,-330,16270,0
5,1468,302,-766,164,23,-160,16431,0
5,1469,846,690,128,13,-23,16499,0
5,1470,608,216,-22,-42,-65,16471,0
5,1471,190,44,-1012,-197,-325,16293,0
5,1472,250,448,-286,-286,-622,16065,0
5,1473,688,-292,36,-302,-409,16176,0
5,1474,-58,-396,-126,-218,-123,16240,0
5,1475,114,172,-298,-221,15,16400,0
5,1476,-34,402,-102,-217,-93,16450,0
5,1477,-224,414,-598,-219,-397,16429,0
5,1478,24,-280,-56,-238,-416,16327,0
5,1479,-90,586,324,-127,-188,16258,0
5,1480,190,494,-840,-15,22,16175,0
5,1481,-68,552,-668,-99,-114,16247,0
5,1482,-148,-38,-390,-224,-211,16171,0
5,1483,0,66,-564,-341,-361,16300,0
5,1484,360,-188,-68,-490,-453,16368,0
5,1485,146,54,220,-434,-364,16270,0
5,1486,296,-382,-146,-350,-228,16271,0
5,1487,-66,-558,82,-354,-178,16247,0
5,1488,-204,100,716,-366,-140,16254,0
5,1489,-58,460,106,-383,179,16285,0
5,1490,-430,66,-748,-414,108,16375,0
5,1491,-418,262,94,-616,-257,16356,0
5,1492,-2,-60,-78,-587,-503,16349,0
5,1493,-24,-384,-332,-497,-456,16552,0
5,1494,282,332,-448,-347,-253,16732,0
5,1495,214,506,-252,-360,-153,16824,0
5,1496,160,842,-494,-541,-240,16843,0
5,1497,202,724,-470,-666,-156,16568,0
5,1498,416,8,486,-588,-274,16243,0
5,1499,360,124,198,-618,-400,16084,0
5,1500,304,-512,498,-475,-381,15905,0
5,1501,270,286,612,-519,-184,16006,0
5,1502,326,-638,244,-520,-67,16093,0
5,1503,-180,-592,278,-605,-10,16051,0
5,1504,124,390,416,-554,-22,16124,0
5,1505,-494,194,24,-551,-112,16163,0
5,1506,-586,204,-1048,-510,-310,16260,0
5,1507,-552,-244,-264,-580,-345,16385,0
5,1508,-314,332,94,-644,-294,16495,0
5,1509,102,-72,2,-351,2,16567,0
5,1510,-136,194,-22,-360,96,16559,0
5,1511,-56,-418,94,-473,-112,16365,0
5,1512,-124,182,-598,-505,-169,16240,0
5,1513,256,-52,-44,-441,-48,16277,0
5,1514,-136,78,106,-438,-125,16412,0
5,1515,-192,840,-864,-527,-176,16352,0
5,1516,-494,-454,-482,-671,-497,16332,0
5,1517,170,356,348,-663,-669,16284,0
5,1518,158,-50,370,-722,-484,16484,0
5,1519,88,-326,382,-609,-222,16547,0
5,1520,66,552,48,-640,7,16567,0
5,1521,-168,564,24,-645,-22,16393,0
5,1522,-240,296,36,-676,-237,16268,0
5,1523,100,8,336,-621,-221,16201,0
5,1524,472,-1250,152,-521,54,16205,0
5,1525,372,-362,-690,-495,228,16230,0
5,1526,-34,54,-148,-523,91,16284,0
5,1527,168,-350,-678,-559,-190,16353,0
5,1528,-80,274,-898,-731,-355,16444,0
5,1529,-486,-268,-264,-819,-485,16411,0
5,1530,294,-280,36,-912,-464,16355,0
5,1531,148,-36,336,-771,-313,16226,0
5,1532,336,252,348,-503,-112,16102,0
5,1533,246,-190,370,-420,-111,16041,0
5,1534,-192,-696,290,-461,78,16161,0
5,1535,-328,-188,-194,-419,80,16119,0
5,1536,-362,274,-90,-596,-4,16084,0
5,1537,-418,-304,-102,-680,-317,16176,0
5,1538,-316,-384,-644,-679,-459,16091,0
5,1539,-384,-1032,-494,-616,-412,16377,0
5,1540,56,-720,14,-486,-198,16468,0
5,1541,-360,-766,-540,-388,-93,16579,0
5,1542,-508,-720,-68,-412,-199,16586,0
5,1543,-190,-1194,360,-611,-320,16573,0
5,1544,228,-290,-32,-566,-167,16617,0
5,1545,100,-546,-172,-580,-68,16574,0
5,1546,472,-96,268,-449,-83,16574,0
5,1547,594,-1032,140,-421,29,16565,0
5,1548,112,-430,-356,-393,30,16519,0
5,1549,312,492,-656,-598,-255,16348,0
5,1550,620,-904,-264,-801,-525,16136,0
5,1551,224,-1136,-56,-803,-368,16103,0
5,1552,472,20,268,-772,-259,16147,0
5,1553,-248,-778,624,-606,-2,16244,0
5,1554,-204,436,866,-484,52,16287,0
5,1555,-282,-626,474,-305,145,16383,0
5,1556,-328,-268,474,-278,126,16371,0
5,1557,-14,-98,-274,-324,-83,16411,0
5,1558,188,-52,70,-432,-262,16381,0
5,1559,122,-836,590,-559,-324,16327,0
6,1560,-490,908,956,1556,-722,16050,0
6,1561,-50,6,404,1643,-341,16320,0
6,1562,32,318,602,1799,-133,16397,0
6,1563,-26,480,544,1823,38,16328,0
6,1564,164,434,80,1741,-20,16145,0
6,1565,6,850,-46,1743,-38,15937,0
6,1566,-488,-270,1258,1773,23,15823,0
6,1567,-466,272,484,1958,300,15902,0
6,1568,-1076,64,368,1999,416,16205,0
6,1569,-938,920,808,1862,209,16351,0
6,1570,-804,1208,314,1730,-2,16446,0
6,1571,-590,330,92,1689,-116,16363,0
6,1572,-28,770,162,1802,-54,16275,0
6,1573,-388,76,576,1972,45,16357,0
6,1574,-500,458,68,1980,214,16525,0
6,1575,-72,376,80,1949,239,16634,0
6,1576,-72,388,704,1774,12,16726,0
6,1577,424,-74,116,1606,-246,16628,0
6,1578,842,146,-44,1587,-297,16496,0
6,1579,886,-6,80,1670,-131,16313,0
6,1580,268,156,-32,1792,121,16259,0
6,1581,86,630,-496,1777,132,16154,0
6,1582,-118,-236,-242,1568,-65,16051,0
6,1583,-38,504,0,1509,-353,16144,0
6,1584,120,364,-276,1406,-532,16213,0
6,1585,444,-642,-380,1623,-330,16266,0
6,1586,186,492,-658,1807,9,16357,0
6,1587,-196,64,80,1769,86,16374,0
6,1588,-444,1428,-542,1609,-55,16256,0
6,1589,-138,538,-322,1374,-225,16263,0
6,1590,232,780,92,1246,-366,16211,0
6,1591,650,630,-276,1176,-351,16057,0
6,1592,244,596,-496,1265,-294,16035,0
6,1593,322,260,80,1332,-109,16024,0
6,1594,32,-282,128,1427,104,16152,0
6,1595,-364,504,-160,1547,291,16312,0
6,1596,-568,134,-658,1477,178,16327,0
6,1597,-558,1186,-484,1283,-82,16213,0
6,1598,-106,596,-692,1105,-434,16117,0
6,1599,356,1012,-912,1061,-530,16046,0
6,1600,502,98,-484,1198,-319,16077,0
6,1601,546,-238,842,1407,15,16194,0
6,1602,-94,342,-208,1421,94,16265,0
6,1603,244,330,-554,1276,-145,16285,0
6,1604,176,330,196,1187,-325,16158,0
6,1605,6,134,-162,1205,-315,16048,0
6,1606,62,792,-542,1335,-58,16100,0
6,1607,-558,88,-58,1420,101,16147,0
6,1608,-648,850,12,1331,15,16240,0
6,1609,-252,954,-46,1149,-170,16329,0
6,1610,-220,918,-704,1157,-230,16267,0
6,1611,-276,816,-484,1022,-288,16397,0
6,1612,-332,214,380,1133,-120,16164,0
6,1613,-152,1116,-646,1155,24,16104,0
6,1614,-242,688,116,1183,76,16106,0
6,1615,-408,122,670,1193,45,16072,0
6,1616,-310,504,0,1037,-155,16017,0
6,1617,-252,422,-738,996,-305,16136,0
6,1618,142,734,-266,1019,-384,16261,0
6,1619,-94,-156,-392,1024,-293,16322,0
6,1620,62,400,-92,1011,-83,16376,0
6,1621,334,-364,104,1032,26,16304,0
6,1622,-264,76,0,1061,162,16184,0
6,1623,-230,-52,-92,971,44,16108,0
6,1624,-322,40,-762,962,-154,16100,0
6,1625,-286,-306,-392,872,-329,16133,0
6,1626,-332,226,12,838,-419,16297,0
6,1627,-28,76,104,914,-333,16419,0
6,1628,6,-502,-58,936,-320,16499,0
6,1629,-18,502,-184,1000,-332,16477,0
6,1630,-4,-502,0,946,-384,16482,0
6,1631,108,342,-104,916,-441,16307,0
6,1632,-230,-86,116,917,-393,16219,0
6,1633,-142,860,750,1089,-157,16193,0
6,1634,-242,838,150,1151,176,16187,0
6,1635,-772,354,-704,1190,180,16191,0
6,1636,-466,434,-576,908,-128,16211,0
6,1637,-218,-282,-128,704,-510,16179,0
6,1638,424,122,-612,708,-562,16332,0
6,1639,390,-86,-346,889,-258,16464,0
6,1640,558,-214,946,922,-59,16391,0
6,1641,-28,30,116,1035,194,16310,0
6,1642,-760,306,-646,1022,257,16250,0
6,1643,-726,966,138,991,78,16214,0
6,1644,-322,-64,-392,705,-232,16054,0
6,1645,230,-504,-876,671,-420,16061,0
6,1646,524,-504,-174,730,-367,16191,0
6,1647,336,-398,70,784,-160,16308,0
6,1648,-400,-456,-184,880,-39,16395,0
6,1649,-264,-640,-138,842,-28,16475,0
6,1650,-86,664,-508,801,-150,16444,0
6,1651,30,446,-116,690,-304,16356,0
6,1652,-62,18,-208,677,-325,16307,0
6,1653,130,770,-276,819,-144,16296,0
6,1654,-208,-110,242,854,24,16340,0
6,1655,86,-120,162,803,-35,16237,0
6,1656,-26,-468,-194,748,-220,16222,0
6,1657,220,30,300,704,-332,16249,0
6,1658,210,-178,-242,711,-394,16234,0
6,1659,344,492,-450,688,-412,16353,0
6,1660,86,192,-58,736,-316,16474,0
6,1661,-196,98,-24,790,-102,16451,0
6,1662,-128,804,-312,691,-216,16354,0
6,1663,6,-478,-392,576,-404,16207,0
6,1664,-16,-594,508,497,-565,16151,0
6,1665,254,318,576,559,-483,16175,0
6,1666,266,146,68,720,-311,16232,0
6,1667,-84,526,346,858,175,16346,0
6,1668,-512,238,322,977,261,16337,0
6,1669,-548,674,-208,837,4,16201,0
6,1670,-194,700,-90,744,-327,16176,0
6,1671,-4,76,208,765,-303,16144,0
6,1672,32,-248,416,821,-151,16227,0
6,1673,96,306,438,927,93,16221,0
6,1674,-310,-28,184,894,144,16196,0
6,1675,-332,-6,150,698,-90,16208,0
6,1676,-320,-202,-208,633,-278,16096,0
6,1677,-108,-42,726,549,-277,16146,0
6,1678,-28,-52,-450,683,-336,16114,0
6,1679,-106,-814,-196,666,-294,16270,0
6,1680,-320,-248,-242,800,-185,16334,0
6,1681,-444,-710,-220,830,-172,16383,0
6,1682,-716,-398,-646,700,-236,16401,0
6,1683,-186,434,-370,637,-405,16405,0
6,1684,-92,-952,336,605,-473,16338,0
6,1685,-4,18,-254,687,-456,16297,0
6,1686,98,-340,-102,809,-279,16282,0
6,1687,128,-8,518,898,-63,16386,0
6,1688,-240,192,186,929,-80,16475,0
6,1689,-376,226,58,880,-114,16529,0
6,1690,-220,986,-266,765,-259,16493,0
6,1691,62,-420,-150,728,-452,16345,0
6,1692,-4,-432,46,650,-481,16376,0
6,1693,52,168,-46,758,-307,16347,0
6,1694,-176,-354,34,885,-10,16392,0
6,1695,-412,258,-496,883,136,16351,0
6,1696,-232,432,34,696,-92,16321,0
6,1697,-118,354,484,536,-447,16289,0
6,1698,434,-282,-358,443,-639,16260,0
6,1699,796,376,-116,505,-524,16142,0
6,1700,864,-224,692,587,-313,16166,0
6,1701,278,-364,-70,754,-178,16239,0
6,1702,-4,226,-138,778,-11,16193,0
6,1703,-480,132,58,777,-143,16176,0
6,1704,-128,-132,484,617,-205,16336,0
6,1705,-106,-86,58,559,-368,16289,0
6,1706,434,-456,230,623,-351,16325,0
6,1707,84,-596,-150,736,-230,16249,0
6,1708,242,-134,-762,868,57,16278,0
6,1709,-50,-386,-380,826,71,16297,0
6,1710,-208,-502,-370,693,-50,16214,0
6,1711,-152,180,-1026,568,-289,16270,0
6,1712,62,-236,-208,477,-568,16230,0
6,1713,200,-732,-218,430,-610,16320,0
6,1714,548,-144,-150,561,-421,16424,0
6,1715,50,-562,254,771,-113,16491,0
6,1716,-310,214,-70,912,51,16503,0
6,1717,-262,364,-356,735,-227,16503,0
6,1718,-152,-456,300,576,-510,16366,0
6,1719,332,-216,542,458,-724,16338,0
6,1720,322,-52,92,574,-554,16309,0
6,1721,410,-734,-266,719,-251,16332,0
6,1722,208,258,-58,877,-67,16343,0
6,1723,-138,-62,106,734,122,16239,0
6,1724,-64,86,-600,688,-204,16059,0
6,1725,300,-524,-312,606,-361,15953,0
6,1726,-252,-524,-242,632,-339,16086,0
6,1727,6,-686,116,689,-159,16131,0
6,1728,264,-480,58,828,-7,16270,0
6,1729,108,-62,358,746,123,16269,0
6,1730,-252,364,12,731,3,16211,0
6,1731,-4,-374,-162,617,-316,16114,0
6,1732,254,-478,-496,575,-441,16159,0
6,1733,252,-1116,-658,591,-443,16279,0
6,1734,40,-618,-968,736,-302,16441,0
6,1735,-140,-294,-426,696,-267,16579,0
6,1736,-50,-420,162,637,-447,16615,0
6,1737,466,166,266,585,-631,16626,0
6,1738,402,-248,564,605,-471,16613,0
6,1739,242,524,1152,844,-319,16425,0
6,1740,390,-110,830,806,-79,16439,0
6,1741,162,-226,-472,837,-61,16267,0
6,1742,18,410,218,756,-154,16166,0
6,1743,-128,250,496,710,-181,16082,0
6,1744,-62,6,-600,766,-214,16100,0
6,1745,-62,-606,68,710,-102,16097,0
6,1746,176,-178,600,692,-128,16234,0
6,1747,210,214,-70,711,-145,16307,0
6,1748,60,-100,-58,727,-30,16238,0
6,1749,38,258,-58,719,-78,16092,0
6,1750,96,-282,116,763,-64,16080,0
6,1751,-412,640,-622,791,49,16035,0
6,1752,-320,306,-634,794,100,16174,0
6,1753,-332,-224,12,656,-55,16245,0
6,1754,-208,156,-508,573,-279,16271,0
6,1755,626,42,-404,480,-422,16391,0
6,1756,682,-1160,-128,574,-327,16385,0
6,1757,774,-120,0,808,-16,16441,0
6,1758,-176,-712,68,955,180,16474,0
6,1759,-298,272,-358,880,116,16503,0
6,1760,-446,-458,-288,680,-213,16354,0
6,1761,-74,-296,-392,514,-421,16457,0
6,1762,128,-678,-1050,407,-426,16542,0
6,1763,322,-1276,-530,489,-358,16548,0
6,1764,988,-1138,-530,597,-227,16512,0
6,1765,432,236,-138,796,-24,16374,0
6,1766,6,306,322,878,191,16289,0
6,1767,-254,524,92,858,131,16221,0
6,1768,-502,-226,-242,714,-92,16211,0
6,1769,-142,-354,92,548,-341,16332,0
6,1770,84,-158,-174,526,-436,16346,0
6,1771,434,-780,-542,636,-277,16466,0
6,1772,244,-214,-162,843,-49,16439,0
6,1773,60,224,600,958,122,16375,0
6,1774,-176,386,-426,854,70,16299,0
6,1775,122,192,14,685,-144,16152,0
6,1776,40,-6,126,674,-95,16078,0
6,1777,-40,-250,-370,711,-28,16066,0
6,1778,-142,-216,-680,790,-46,16107,0
6,1779,-128,-178,-312,801,-96,16246,0
6,1780,52,-294,80,788,-8,16367,0
6,1781,-64,-238,-80,798,62,16341,0
6,1782,176,-410,-392,710,16,16126,0
6,1783,-16,134,692,661,-40,15964,0
6,1784,242,-272,658,643,-35,15977,0
6,1785,60,-990,346,674,-26,15962,0
6,1786,-16,-444,-104,719,70,16146,0
6,1787,-16,-98,22,831,-1,16331,0
6,1788,-266,-584,-184,720,-8,16464,0
6,1789,-332,122,-230,783,-120,16479,0
6,1790,-334,-480,-230,793,-44,16535,0
6,1791,-186,354,34,847,-65,16612,0
6,1792,-198,-168,392,805,-109,16549,0
6,1793,28,-146,484,715,-147,16504,0
6,1794,334,-270,300,688,-251,16278,0
6,1795,198,-606,288,812,-65,16298,0
6,1796,40,-28,-92,947,112,16257,0
6,1797,-310,630,34,1014,258,16200,0
6,1798,-434,342,-324,972,177,16257,0
6,1799,-254,606,-472,832,63,16204,0
6,1800,-18,62,-450,771,-184,16132,0
6,1801,390,666,-542,694,-251,16111,0
6,1802,320,-422,266,758,-146,16066,0
6,1803,106,-376,242,880,45,16068,0
6,1804,62,-28,80,903,138,16124,0
6,1805,-210,-204,-150,825,142,16296,0
6,1806,-220,-376,-162,725,-68,16319,0
6,1807,-436,-8,-266,619,-211,16406,0
6,1808,-220,-112,-622,663,-231,16367,0
6,1809,198,-224,346,746,-137,16334,0
6,1810,-84,-86,196,828,52,16348,0
6,1811,-232,16,-566,855,102,16334,0
6,1812,-140,98,-750,755,80,16296,0
6,1813,-436,270,346,682,-55,16283,0
6,1814,242,86,-208,548,-83,16275,0
6,1815,196,-504,-196,627,-108,16243,0
6,1816,176,-468,322,731,-94,16239,0
6,1817,6,-40,-80,794,-31,16361,0
6,1818,-50,-664,22,806,-30,16378,0
6,1819,-64,62,-58,654,-98,16373,0
7,1820,4,-88,-842,850,-759,15969,0
7,1821,4,154,-254,1043,-636,16397,0
7,1822,-218,-374,-438,1152,-445,16642,0
7,1823,-196,-318,-220,865,-769,16701,0
7,1824,16,-504,-462,607,-1053,16610,0
7,1825,60,-630,218,634,-1125,16110,0
7,1826,162,-8,-70,833,-770,15815,0
7,1827,-344,-262,-704,996,-505,15826,0
7,1828,-142,-262,-46,1127,-349,16006,0
7,1829,-86,-42,554,955,-477,16195,0
7,1830,-210,1032,-266,865,-794,16456,0
7,1831,-40,-862,12,803,-1015,16601,0
7,1832,-30,-134,414,733,-1158,16450,0
7,1833,276,-330,116,639,-1352,16285,0
7,1834,332,-446,68,704,-1065,16138,0
7,1835,400,-76,564,779,-805,16152,0
7,1836,466,-30,150,875,-519,16246,0
7,1837,4,-574,-484,872,-349,16309,0
7,1838,28,4,-484,855,-551,16197,0
7,1839,286,432,414,670,-812,16138,0
7,1840,242,-42,-184,787,-872,16125,0
7,1841,94,-804,-12,885,-755,16269,0
7,1842,152,-226,-12,981,-531,16507,0
7,1843,162,-642,-174,982,-533,16359,0
7,1844,578,-654,-484,952,-774,16269,0
7,1845,356,-548,-542,873,-836,16305,0
7,1846,590,-562,-12,927,-712,16230,0
7,1847,152,328,-980,1093,-589,16216,0
7,1848,-30,-538,-276,998,-524,16279,0
7,1849,276,-122,184,823,-805,16279,0
7,1850,60,560,-496,759,-735,16295,0
7,1851,320,-272,-288,838,-782,16337,0
7,1852,276,1172,392,994,-576,16294,0
7,1853,210,-40,-138,924,-463,16372,0
7,1854,274,-158,-646,975,-562,16323,0
7,1855,410,-262,-300,867,-538,16327,0
7,1856,186,-202,184,822,-605,16201,0
7,1857,-210,-100,-658,730,-551,16061,0
7,1858,-54,-18,-196,853,-468,16096,0
7,1859,-414,836,496,864,-439,16225,0
7,1860,-30,-158,-58,813,-581,16308,0
7,1861,4,132,-588,776,-626,16462,0
7,1862,502,458,-300,775,-900,16679,0
7,1863,254,64,172,652,-1066,16416,0
7,1864,906,-354,-230,676,-1130,16181,0
7,1865,726,-712,276,900,-621,16149,0
7,1866,74,-686,346,1042,-188,16099,0
7,1867,-368,606,-358,1028,-66,16099,0
7,1868,-344,478,-508,865,-156,16227,0
7,1869,-220,340,126,718,-322,16268,0
7,1870,-298,-270,-174,529,-712,16305,0
7,1871,30,-364,-566,515,-733,16346,0
7,1872,94,-412,-370,614,-712,16427,0
7,1873,252,-342,138,577,-776,16430,0
7,1874,376,-630,-438,659,-722,16270,0
7,1875,388,-678,334,817,-545,16125,0
7,1876,400,-180,116,874,-398,16136,0
7,1877,50,420,-34,965,-231,16189,0
7,1878,-288,-412,-276,1028,-363,16216,0
7,1879,128,282,-266,804,-467,16368,0
7,1880,-188,16,-346,798,-699,16402,0
7,1881,174,-250,-266,764,-719,16433,0
7,1882,16,-168,-128,810,-625,16432,0
7,1883,52,-248,-80,867,-525,16167,0
7,1884,208,-354,-508,921,-422,16227,0
7,1885,-154,40,-416,881,-288,16179,0
7,1886,-412,248,312,816,-376,16208,0
7,1887,-120,490,104,718,-453,16401,0
7,1888,-154,-8,438,647,-653,16427,0
7,1889,-40,282,138,675,-668,16286,0
7,1890,4,178,58,615,-645,16201,0
7,1891,184,-782,-462,732,-702,16179,0
7,1892,266,1000,-312,788,-464,16203,0
7,1893,162,-112,-116,788,-551,16294,0
7,1894,16,-422,-600,741,-593,16454,0
7,1895,-108,190,-58,601,-593,16397,0
7,1896,84,-758,-266,691,-539,16266,0
7,1897,298,178,116,730,-355,16226,0
7,1898,-66,120,92,771,-299,16116,0
7,1899,28,790,-196,734,-296,16126,0
7,1900,-154,-112,-208,691,-407,16219,0
7,1901,-96,-180,-230,578,-509,16331,0
7,1902,94,236,-922,549,-666,16312,0
7,1903,162,-262,-208,622,-707,16397,0
7,1904,150,-8,-12,632,-663,16298,0
7,1905,252,-272,-174,782,-524,16329,0
7,1906,174,132,92,836,-318,16404,0
7,1907,230,-226,-24,852,-336,16287,0
7,1908,-196,-202,334,817,-411,16232,0
7,1909,162,74,-484,831,-445,16171,0
7,1910,-74,-112,-138,758,-539,16138,0
7,1911,230,236,-334,657,-642,16250,0
7,1912,-18,120,-612,623,-620,16406,0
7,1913,162,362,-70,661,-528,16310,0
7,1914,140,398,-854,750,-341,16299,0
7,1915,-198,-422,-150,741,-271,16309,0
7,1916,-254,-320,116,610,-379,16139,0
7,1917,264,-64,-392,559,-483,16105,0
7,1918,208,-376,-266,492,-529,16274,0
7,1919,118,270,472,520,-431,16311,0
7,1920,-190,-284,34,545,-493,16242,0
7,1921,126,-850,-716,537,-615,16321,0
7,1922,118,28,116,540,-585,16455,0
7,1923,-266,-354,-70,654,-482,16382,0
7,1924,-436,-550,-566,704,-454,16264,0
7,1925,-108,-400,-346,755,-521,16245,0
7,1926,242,190,334,778,-517,16288,0
7,1927,-154,132,172,714,-475,16361,0
7,1928,160,-366,-162,768,-409,16401,0
7,1929,62,192,150,757,-278,16260,0
7,1930,298,178,-92,718,-302,16211,0
7,1931,-174,-364,496,633,-332,16240,0
7,1932,-368,-30,680,536,-451,16175,0
7,1933,-142,28,68,498,-611,16244,0
7,1934,14,-956,-426,610,-495,16311,0
7,1935,444,108,-230,632,-509,16450,0
7,1936,174,-296,322,711,-475,16405,0
7,1937,-18,-226,-380,747,-342,16372,0
7,1938,-322,-584,-46,803,-297,16154,0
7,1939,-390,-158,276,762,-355,16104,0
7,1940,-52,200,-670,670,-463,16308,0
7,1941,-40,-30,-162,570,-448,16299,0
7,1942,-312,-526,888,530,-523,16325,0
7,1943,38,-770,230,530,-509,16380,0
7,1944,-64,-770,218,527,-522,16323,0
7,1945,230,-192,668,576,-512,16185,0
7,1946,-64,-30,-542,622,-522,16197,0
7,1947,264,-262,92,608,-583,16190,0
7,1948,408,4,266,688,-438,16209,0
7,1949,4,-216,-70,692,-352,16411,0
7,1950,-86,-458,-542,743,-480,16361,0
7,1951,286,352,-334,707,-459,16323,0
7,1952,16,190,22,650,-485,16312,0
7,1953,72,-18,-324,691,-499,16210,0
7,1954,240,-320,-196,695,-364,16162,0
7,1955,-322,-54,-70,720,-364,16229,0
7,1956,-130,420,116,632,-376,16259,0
7,1957,50,-712,450,649,-328,16326,0
7,1958,-130,-158,472,561,-396,16334,0
7,1959,162,40,242,489,-444,16263,0
7,1960,-108,-376,-358,490,-453,16172,0
7,1961,-244,-122,-92,531,-420,16238,0
7,1962,50,398,-104,518,-406,16413,0
7,1963,-154,-1024,-738,596,-409,16445,0
7,1964,-74,-180,-150,602,-533,16383,0
7,1965,298,-412,472,632,-703,16212,0
7,1966,196,-146,-230,609,-666,16195,0
7,1967,372,488,426,777,-412,16297,0
7,1968,162,248,634,829,-241,16329,0
7,1969,28,74,-346,835,-115,16359,0
7,1970,-122,-712,46,725,-271,16259,0
7,1971,-322,340,312,641,-420,16256,0
7,1972,-188,120,-242,538,-444,16189,0
7,1973,40,-178,-484,525,-436,16201,0
7,1974,84,282,-416,566,-405,16318,0
7,1975,140,4,518,537,-425,16371,0
7,1976,274,-296,-128,507,-568,16338,0
7,1977,128,-180,92,589,-566,16385,0
7,1978,-64,-470,358,684,-397,16336,0
7,1979,38,28,-208,727,-331,16220,0
7,1980,50,-908,-92,701,-220,16182,0
7,1981,184,40,322,703,-225,16223,0
7,1982,-190,132,-116,638,-245,16258,0
7,1983,-402,-112,-358,650,-347,16394,0
7,1984,-358,-226,196,445,-456,16345,0
7,1985,4,-226,138,426,-640,16258,0
7,1986,444,352,-450,451,-623,16290,0
7,1987,184,-886,68,599,-442,16262,0
7,1988,-190,-112,322,675,-311,16219,0
7,1989,48,-422,-416,637,-263,16234,0
7,1990,152,-538,-34,685,-227,16311,0
7,1991,-448,-204,-104,710,-129,16259,0
7,1992,-266,108,-104,628,-339,16273,0
7,1993,-86,560,508,609,-471,16335,0
7,1994,70,-920,726,459,-658,16292,0
7,1995,-288,-400,680,596,-568,16290,0
7,1996,-176,-480,-46,657,-459,16286,0
7,1997,230,398,-220,702,-438,16244,0
7,1998,118,120,150,679,-354,16305,0
7,1999,38,-630,-162,548,-461,16258,0
7,2000,26,-412,-438,662,-435,16337,0
7,2001,72,386,-576,658,-272,16310,0
7,2002,-52,-18,-128,667,-395,16228,0
7,2003,-6,-158,-334,709,-313,16226,0
7,2004,50,-1094,266,709,-293,16252,0
7,2005,-18,-458,196,650,-438,16285,0
7,2006,-378,200,358,609,-457,16339,0
7,2007,-66,-146,-276,606,-445,16338,0
7,2008,-256,-458,-416,599,-392,16321,0
7,2009,286,-666,-220,588,-454,16303,0
7,2010,-164,-88,-646,510,-484,16212,0
7,2011,52,-444,438,614,-471,16243,0
7,2012,150,-390,554,551,-421,16331,0
7,2013,60,-30,518,563,-417,16299,0
7,2014,116,-216,-138,679,-288,16322,0
7,2015,70,314,288,707,-252,16180,0
7,2016,-40,-458,-230,682,-330,16230,0
7,2017,-212,-146,-692,693,-391,16352,0
7,2018,-244,-666,-462,556,-499,16355,0
7,2019,94,-584,542,462,-609,16336,0
7,2020,306,-308,242,521,-430,16311,0
7,2021,340,-852,12,612,-331,16210,0
7,2022,228,-100,-300,752,-236,16236,0
7,2023,-256,-30,266,718,-125,16282,0
7,2024,116,-88,-288,587,-410,16278,0
7,2025,-164,386,-554,539,-555,16340,0
7,2026,-38,-144,266,482,-453,16335,0
7,2027,116,-816,184,615,-472,16297,0
7,2028,184,-284,392,689,-302,16328,0
7,2029,230,236,12,680,-318,16219,0
7,2030,242,-100,254,758,-341,16257,0
7,2031,-280,-262,-646,761,-256,16303,0
7,2032,-164,120,-80,702,-362,16229,0
7,2033,-98,-458,-220,616,-450,16271,0
7,2034,-130,-30,-438,587,-408,16368,0
7,2035,-282,-436,-334,574,-469,16357,0
7,2036,-64,-758,426,544,-476,16321,0
7,2037,174,-296,196,560,-467,16414,0
7,2038,-86,4,-162,610,-320,16359,0
7,2039,0,-136,310,697,-348,16216,0
7,2040,-38,550,-70,656,-269,16168,0
7,2041,162,-492,-670,659,-298,16159,0
7,2042,36,802,-242,629,-305,16169,0
7,2043,218,96,-404,622,-291,16251,0
7,2044,-266,248,-92,552,-417,16487,0
7,2045,-278,466,-462,491,-498,16443,0
7,2046,4,408,322,463,-590,16421,0
7,2047,160,-54,414,577,-456,16266,0
7,2048,126,-124,172,713,-318,16227,0
7,2049,352,-240,-438,624,-252,16179,0
7,2050,72,-354,68,678,-301,16226,0
7,2051,-96,224,-542,636,-285,16282,0
7,2052,-40,212,-508,603,-356,16317,0
7,2053,50,212,658,574,-386,16408,0
7,2054,94,50,-266,483,-495,16376,0
7,2055,106,-100,-634,503,-451,16335,0
7,2056,-96,294,184,536,-365,16313,0
7,2057,60,4,242,558,-370,16224,0
7,2058,106,-158,-772,587,-443,16218,0
7,2059,218,-296,-138,602,-365,16367,0
7,2060,162,-574,150,655,-300,16258,0
7,2061,-40,-30,346,698,-314,16219,0
7,2062,60,-642,196,670,-257,16281,0
7,2063,24,142,-358,615,-345,16280,0
7,2064,4,74,496,606,-321,16262,0
7,2065,-154,-342,-138,570,-288,16225,0
7,2066,4,248,-92,626,-436,16213,0
7,2067,-154,132,622,652,-184,16275,0
7,2068,-344,282,414,818,-272,16377,0
7,2069,-300,-8,-450,583,-456,16385,0
7,2070,60,-550,-184,462,-624,16337,0
7,2071,-178,236,554,350,-578,16181,0
7,2072,204,-668,-58,474,-386,16316,0
7,2073,126,-470,-138,583,-197,16285,0
7,2074,-20,142,-184,598,-100,16334,0
7,2075,-254,-54,-380,646,-138,16338,0
7,2076,-402,-18,68,620,-235,16238,0
7,2077,-76,674,172,621,-376,16229,0
7,2078,240,-146,0,490,-573,16188,0
7,2079,206,-76,-646,423,-524,16264,0
