id,cnt,gx,gy,gz,ax,ay,az,pls
0,0,-578,-2746,324,-577,-712,16394,0
0,1,-1232,-2008,334,-292,-1167,16211,0
0,2,-884,-1754,-302,223,-1333,15970,0
0,3,-580,-1396,-520,482,-1311,15911,0
0,4,106,12,-118,799,-1551,15872,0
0,5,1076,360,160,729,-1622,15933,0
0,6,1540,440,206,441,-1331,15958,0
0,7,1124,234,-368,423,-1105,15988,0
0,8,752,500,116,177,-1031,15997,0
0,9,-208,-854,-774,-106,-1016,16165,0
0,10,-250,-1268,-1060,-35,-1224,16098,0
0,11,-84,-726,-302,194,-1170,15883,0
0,12,-364,-344,-576,476,-1150,15796,0
0,13,-84,382,-198,358,-940,15887,0
0,14,-242,-472,-936,100,-786,16021,0
0,15,-566,72,-484,-290,-624,16279,0
0,16,-1334,-1050,228,-378,-767,16425,0
0,17,-1010,-1016,402,-98,-1251,16286,0
0,18,-534,-2090,126,339,-1359,16241,0
0,19,-118,-922,-118,571,-1353,16224,0
0,20,-174,-772,-302,496,-1256,16174,0
0,21,-410,-714,-844,535,-1189,16143,0
0,22,-622,-1060,-622,540,-1183,15916,0
0,23,-762,-750,678,571,-1305,15889,0
0,24,-748,-1050,-290,502,-1277,16036,0
0,25,-758,-1002,-714,378,-1596,15829,0
0,26,128,-518,-1282,656,-2012,16021,0
0,27,480,-554,-1328,863,-1635,16008,0
0,28,706,-922,-1270,813,-1441,16066,0
0,29,142,-1120,-1258,808,-1249,16122,0
0,30,64,-992,-648,688,-1013,16003,0
0,31,-228,-470,-588,736,-979,15841,0
0,32,368,-554,-694,712,-1117,15710,0
0,33,582,-380,-48,391,-1019,15860,0
0,34,480,684,126,195,-942,16058,0
0,35,1010,24,56,253,-995,16196,0
0,36,1056,60,-740,241,-973,16225,0
0,37,898,-92,-602,408,-796,16307,0
0,38,368,-102,344,390,-589,16322,0
0,39,40,-530,264,519,-700,16147,0
0,40,-126,-1048,70,541,-878,16053,0
0,41,436,-242,172,574,-1090,15921,0
0,42,514,232,448,846,-1036,15810,0
0,43,402,128,264,816,-1095,15794,0
0,44,166,234,474,639,-945,15871,0
0,45,-354,140,736,543,-906,15932,0
0,46,-656,-494,566,616,-966,15959,0
0,47,-332,-172,276,667,-1235,15981,0
0,48,-298,-334,114,591,-1437,16022,0
0,49,164,186,806,655,-1398,16183,0
0,50,288,-218,332,583,-1195,16272,0
0,51,108,-564,344,554,-1054,16334,0
0,52,280,-298,312,530,-1096,16380,0
0,53,-94,-230,194,437,-1228,16312,0
0,54,-588,-250,-68,510,-1285,16273,0
0,55,-62,-472,-220,558,-1365,16193,0
0,56,6,-876,-302,646,-1284,16093,0
0,57,400,-772,10,603,-1139,16103,0
0,58,256,-528,-968,567,-833,16086,0
0,59,6,-646,-60,514,-731,16043,0
0,60,-252,-518,-266,497,-709,16018,0
0,61,-320,-438,-210,543,-637,16030,0
0,62,-276,-288,-210,655,-727,16029,0
0,63,174,580,78,714,-986,16025,0
0,64,-50,-866,332,601,-972,16026,0
0,65,198,106,-70,772,-894,16121,0
0,66,346,-54,-368,959,-867,16113,0
0,67,334,636,-578,896,-730,16065,0
0,68,-16,82,206,765,-744,15900,0
0,69,18,-184,-556,779,-681,15839,0
0,70,-308,-346,-510,622,-660,15924,0
0,71,-218,-138,-174,728,-852,15911,0
0,72,-284,-158,-218,884,-1027,15874,0
0,73,-50,-56,32,955,-1120,16028,0
0,74,-130,-808,-128,877,-1099,16279,0
0,75,-242,24,22,833,-1182,16350,0
0,76,-60,-704,-578,696,-1436,16302,0
0,77,-26,-1290,-864,618,-1402,16277,0
0,78,130,-980,-210,795,-1641,16036,0
0,79,-118,-1050,-716,991,-1516,15956,0
0,80,62,-576,-902,829,-1322,15952,0
0,81,-194,-770,-1430,792,-1143,15952,0
0,82,-884,-888,-1882,725,-1034,15953,0
0,83,-648,-888,-786,590,-900,15859,0
0,84,-996,-518,-1190,651,-884,15767,0
0,85,-760,-426,-1098,571,-990,15743,0
0,86,-400,-218,-36,408,-1035,15782,0
0,87,6,-126,-728,595,-880,15863,0
0,88,-424,12,-1536,702,-769,15878,0
0,89,-60,314,-198,693,-722,15994,0
0,90,-104,-32,-230,688,-655,16123,0
0,91,54,154,566,568,-659,16205,0
0,92,-230,-276,494,597,-822,16310,0
0,93,-52,174,482,583,-1028,16302,0
0,94,18,-160,298,698,-1072,16255,0
0,95,220,-888,-832,863,-1152,16209,0
0,96,300,-148,-416,977,-1129,16123,0
0,97,276,232,586,1073,-1152,16021,0
0,98,402,382,-406,813,-983,16062,0
0,99,-276,-564,-118,653,-874,16064,0
0,100,-252,-414,794,590,-934,16014,0
0,101,-152,-496,32,754,-1115,15883,0
0,102,74,406,-474,1088,-1133,15776,0
0,103,188,382,-636,1256,-1034,15784,0
0,104,64,268,194,1159,-876,15834,0
0,105,-330,350,-92,903,-758,15912,0
0,106,-500,-80,-578,830,-710,16052,0
0,107,-184,70,-590,812,-825,16070,0
0,108,-72,522,78,899,-925,15946,0
0,109,76,130,-138,860,-896,15998,0
0,110,-152,70,-360,705,-867,16072,0
0,111,-568,70,-452,595,-982,16208,0
0,112,-400,-126,-406,571,-1053,16229,0
0,113,-94,-148,-128,488,-1171,16103,0
0,114,-354,-300,-786,588,-1157,16028,0
0,115,-276,152,-452,692,-1266,15839,0
0,116,-84,-148,-266,666,-1148,15901,0
0,117,-230,198,-1132,554,-1049,15959,0
0,118,-408,-228,116,463,-1032,16098,0
0,119,-568,-610,218,416,-1054,16149,0
0,120,-544,-240,-104,485,-1065,16149,0
0,121,-772,-460,-544,708,-1086,16058,0
0,122,-512,186,-360,828,-1219,16043,0
0,123,-94,406,424,767,-1460,16022,0
0,124,312,256,-382,809,-1293,16060,0
0,125,-118,-610,-452,825,-1025,16092,0
0,126,210,718,-60,617,-1115,16184,0
0,127,-254,-426,-94,492,-1014,16287,0
0,128,-152,-356,-348,545,-1097,16222,0
0,129,-74,-576,-36,671,-1145,16185,0
0,130,256,374,-34,693,-1069,16045,0
0,131,-40,268,-14,688,-990,15959,0
0,132,-492,232,-902,709,-959,16011,0
0,133,-388,406,-302,651,-1107,16007,0
0,134,-500,-692,644,317,-1376,16134,0
0,135,-96,-762,-556,466,-1122,16263,0
0,136,-250,26,162,694,-1104,16228,0
0,137,-242,70,10,775,-1127,16152,0
0,138,6,-356,194,640,-1206,16215,0
0,139,-38,-530,-118,679,-1244,16256,0
0,140,96,-564,-694,752,-1311,16237,0
0,141,402,-946,356,867,-1374,16163,0
0,142,-94,-750,-532,979,-1318,16024,0
0,143,446,-460,-948,955,-1344,15961,0
0,144,266,-496,-152,870,-1185,15900,0
0,145,334,-426,-82,664,-1010,15858,0
0,146,266,360,298,600,-938,15856,0
0,147,162,-230,-48,537,-1022,15805,0
0,148,142,602,252,633,-1065,15916,0
0,149,30,-252,-394,600,-1003,15958,0
0,150,-286,-288,-1040,609,-995,16029,0
0,151,-228,-146,34,565,-1033,16129,0
0,152,18,-242,322,685,-1022,16115,0
0,153,-60,-114,194,801,-1073,16055,0
0,154,30,-230,-266,812,-974,16048,0
0,155,30,580,90,895,-1005,16022,0
0,156,52,2,182,941,-1098,15983,0
0,157,412,406,182,961,-1172,16025,0
0,158,106,-264,-82,842,-1126,16008,0
0,159,30,498,-416,842,-1022,16010,0
0,160,-342,174,-60,771,-1031,16030,0
0,161,-252,452,-844,835,-1074,16083,0
0,162,-152,70,-94,622,-1080,16160,0
0,163,-50,-68,228,506,-1061,16205,0
0,164,208,-126,574,558,-1003,16190,0
0,165,198,-980,-140,589,-1099,16169,0
0,166,254,290,32,685,-1165,16091,0
0,167,392,-78,34,919,-1086,16010,0
0,168,322,348,-60,919,-962,16012,0
0,169,208,-196,-462,755,-910,15978,0
0,170,18,278,-14,650,-984,16011,0
0,171,-60,-102,148,634,-1112,15886,0
0,172,66,154,-34,649,-1123,15816,0
0,173,514,-230,-36,661,-1052,15890,0
0,174,118,210,126,609,-1031,15944,0
0,175,-216,130,70,548,-963,16000,0
0,176,-28,-368,-520,599,-899,16162,0
0,177,-176,-300,-198,529,-934,16202,0
0,178,-186,186,194,487,-994,16317,0
0,179,-96,-1074,528,317,-934,16482,0
0,180,-556,-750,344,327,-942,16394,0
0,181,-320,-866,22,591,-1074,16225,0
0,182,-210,-876,668,957,-1251,15962,0
0,183,-92,-400,184,1030,-1264,15696,0
0,184,154,-426,172,1057,-1120,15674,0
0,185,-84,868,78,1116,-990,15580,0
0,186,104,254,-14,956,-914,15730,0
0,187,252,210,-336,915,-884,15896,0
0,188,42,166,-184,786,-786,16152,0
0,189,-52,-646,436,642,-929,16235,0
0,190,-480,-368,-406,633,-945,16313,0
0,191,-432,-888,264,577,-940,16404,0
0,192,-354,-426,-370,518,-915,16331,0
0,193,-492,-346,344,815,-1006,16095,0
0,194,30,128,-474,821,-1189,16058,0
0,195,-38,-206,-82,659,-1192,16070,0
0,196,446,256,22,640,-1103,16169,0
0,197,230,-148,298,840,-1064,16244,0
0,198,286,-830,-278,775,-1171,16321,0
0,199,252,-126,-220,751,-1228,16294,0
0,200,356,-472,90,826,-1171,16118,0
0,201,514,-102,-140,866,-1062,15949,0
0,202,220,-1130,332,721,-834,15834,0
0,203,16,-680,194,576,-914,15732,0
0,204,-36,-158,92,785,-907,15757,0
0,205,-60,648,-324,909,-817,15672,0
0,206,164,406,-324,956,-778,15857,0
0,207,288,798,632,752,-595,16049,0
0,208,-72,-264,-128,512,-489,16320,0
0,209,-388,-1004,-48,464,-609,16302,0
0,210,-556,-346,840,512,-904,16208,0
0,211,-286,-402,172,788,-1151,15992,0
0,212,-182,-1140,-496,1071,-1275,15840,0
0,213,52,-80,-140,1039,-1255,15774,0
0,214,-142,116,136,927,-1202,15852,0
0,215,-154,902,10,819,-1264,16083,0
0,216,-648,-1050,322,618,-1060,16278,0
0,217,-490,-922,-2,667,-1211,16305,0
0,218,-334,-600,-302,792,-1395,16301,0
0,219,514,-438,-740,762,-1372,16347,0
0,220,300,244,-590,756,-1034,16206,0
0,221,334,-888,206,620,-889,16149,0
0,222,-50,-506,-244,553,-827,16136,0
0,223,18,-818,-394,603,-832,16003,0
0,224,18,-622,172,726,-866,15955,0
0,225,-38,-206,-174,823,-871,15877,0
0,226,130,730,-152,765,-866,15921,0
0,227,-28,544,194,675,-951,16031,0
0,228,232,556,528,769,-942,16041,0
0,229,86,2,402,755,-977,16088,0
0,230,-118,-646,-406,777,-944,16216,0
0,231,-242,-484,-360,825,-937,16168,0
0,232,-278,-912,528,841,-997,16029,0
0,233,-288,-334,-210,874,-1028,16040,0
0,234,6,-10,540,997,-984,15858,0
0,235,-2,118,24,905,-931,15907,0
0,236,-298,-114,136,783,-821,15877,0
0,237,-444,418,-416,622,-819,15980,0
0,238,-500,152,-60,761,-957,16023,0
0,239,-196,60,414,860,-1132,15960,0
0,240,-524,302,-82,819,-1175,16001,0
0,241,402,174,-290,748,-1217,16060,0
0,242,142,232,-210,709,-1058,16253,0
0,243,66,-308,-68,607,-972,16353,0
0,244,6,-668,114,690,-1029,16293,0
0,245,198,-726,-82,839,-986,16139,0
0,246,-30,36,-486,853,-1009,15988,0
0,247,74,128,-416,853,-968,15909,0
0,248,64,174,-1040,712,-967,15869,0
0,249,-50,82,-602,573,-933,15893,0
0,250,-94,-668,552,492,-1023,15999,0
0,251,-108,36,148,578,-978,16029,0
0,252,-18,-138,378,662,-994,16027,0
0,253,154,-322,-544,756,-1075,16112,0
0,254,-4,-380,-360,803,-1059,16042,0
0,255,-298,116,-106,816,-1000,16056,0
0,256,-40,-356,-60,810,-1023,16128,0
0,257,122,558,530,811,-994,16077,0
0,258,-16,314,22,853,-974,16072,0
0,259,-218,-414,-532,794,-994,16042,0
1,260,320,-10,-416,-111,-283,16389,0
1,261,322,-900,10,-106,-83,16043,0
1,262,-218,-80,102,51,120,15876,0
1,263,-534,-530,-474,242,153,15985,0
1,264,-118,-704,-2,104,-4,16167,0
1,265,-278,-750,136,221,-213,16201,0
1,266,-142,-22,-186,316,-328,16109,0
1,267,-332,-600,-890,328,-394,16086,0
1,268,-60,116,-556,176,-611,16140,0
1,269,-4,-230,-232,52,-531,16318,0
1,270,152,-970,-360,88,-309,16257,0
1,271,-26,-528,-450,204,70,16007,0
1,272,246,-112,104,302,86,15913,0
1,273,-368,-518,540,388,-144,15996,0
1,274,-176,186,-290,392,-329,16120,0
1,275,-320,-750,-48,243,-402,16178,0
1,276,-232,-460,68,248,-441,16136,0
1,277,-264,-738,-670,208,-328,16088,0
1,278,-72,-1084,-994,184,0,16055,0
1,279,-502,-172,-244,346,235,15912,0
1,280,-478,-218,518,599,91,15908,0
1,281,-62,476,-82,628,-316,16127,0
1,282,-242,452,-452,543,-556,16331,0
1,283,246,408,324,350,-625,16300,0
1,284,522,588,-152,252,-284,16158,0
1,285,278,-252,172,80,-104,15998,0
1,286,-4,-380,-220,249,19,15873,0
1,287,140,-138,-428,316,-153,15872,0
1,288,16,-646,240,431,-332,16052,0
1,289,286,418,136,504,-431,16239,0
1,290,456,-10,-220,470,-164,16242,0
1,291,64,406,90,402,133,16143,0
1,292,-38,440,-348,272,82,15984,0
1,293,-198,602,-290,183,-48,16069,0
1,294,-50,128,-382,228,-160,16194,0
1,295,242,128,322,258,-445,16229,0
1,296,500,336,-174,267,-375,16168,0
1,297,458,-600,-370,308,-227,16136,0
1,298,286,82,-278,368,-174,15976,0
1,299,154,394,-94,324,-151,15973,0
1,300,-106,140,-556,258,-185,16160,0
1,301,446,730,276,274,-106,16233,0
1,302,108,718,206,329,-228,16151,0
1,303,108,914,-118,253,-210,16113,0
1,304,378,834,-220,491,-2,15925,0
1,305,30,1468,-82,270,10,15910,0
1,306,-154,1042,-486,175,10,15942,0
1,307,264,1850,-798,62,-23,16034,0
1,308,334,1388,436,-201,-33,16098,0
1,309,-74,532,-762,-536,97,16258,0
1,310,-94,-22,-452,-635,40,16376,0
1,311,184,-82,-566,-597,-24,16410,0
1,312,-84,-564,678,-524,103,16273,0
1,313,-300,36,136,-388,25,16191,0
1,314,-206,-898,588,-301,-292,16144,0
1,315,108,-680,44,-225,-272,16206,0
1,316,-264,-772,436,-177,-66,16095,0
1,317,-162,-56,322,32,-54,16003,0
1,318,-154,94,102,200,-6,16004,0
1,319,-264,590,332,162,37,15993,0
1,320,-94,152,-370,77,-31,16059,0
1,321,108,440,-220,-83,-11,16106,0
1,322,28,-126,-152,-386,-74,16157,0
1,323,-130,336,322,-593,-154,16255,0
1,324,130,-414,10,-530,52,16312,0
1,325,-16,-426,-406,-504,226,16119,0
1,326,-286,-252,448,-506,204,16045,0
1,327,-94,-230,678,-243,84,16084,0
1,328,-244,372,10,-9,-10,16107,0
1,329,-208,-242,-982,71,-29,16060,0
1,330,18,48,-256,-42,-49,16134,0
1,331,-246,-716,-36,-95,-114,16106,0
1,332,-38,186,-48,-139,-56,16084,0
1,333,-62,36,-566,-255,-159,16138,0
1,334,178,108,-414,-285,-88,16230,0
1,335,-72,-334,368,-412,33,16133,0
1,336,-210,-554,-94,-344,2,16120,0
1,337,118,302,-256,-331,1,16135,0
1,338,18,-726,172,-401,-106,16218,0
1,339,-30,-252,252,-429,-103,16208,0
1,340,-4,-496,-670,-303,-46,16124,0
1,341,-40,-252,-140,-157,-22,15953,0
1,342,40,-34,-970,-158,4,16020,0
1,343,-88,-162,-336,-77,93,15999,0
1,344,-74,-138,-474,-298,-41,16130,0
1,345,-310,672,114,-303,-40,16237,0
1,346,-116,50,462,-239,-79,16175,0
1,347,-320,-622,-416,-392,-109,16151,0
1,348,-276,-10,-716,-317,22,16067,0
1,349,-40,-310,-348,-282,83,16051,0
1,350,-502,244,448,-279,34,16090,0
1,351,140,152,-290,-358,-320,16104,0
1,352,-28,-634,-590,-74,-104,16223,0
1,353,-128,60,-498,-221,-76,16145,0
1,354,-218,476,402,-253,-142,16104,0
1,355,120,256,148,-285,-88,16110,0
1,356,-28,-542,-186,-334,-63,16126,0
1,357,-28,24,-174,-281,-37,16011,0
1,358,-62,174,598,-394,-36,16050,0
1,359,208,-230,-24,-237,64,16096,0
1,360,-240,-598,-472,-265,103,16160,0
1,361,152,348,-578,-240,14,16182,0
1,362,-286,106,378,-232,6,16119,0
1,363,-184,-102,-244,-335,-50,16140,0
1,364,-198,-922,-648,-219,-161,16041,0
1,365,-512,-668,-348,-267,-183,16079,0
1,366,30,-300,-14,-274,-217,16136,0
1,367,422,-414,-302,-276,-74,16182,0
1,368,-94,-1038,-164,-358,-31,16183,0
1,369,-28,-206,494,-266,46,16134,0
1,370,-96,-148,32,-223,-117,16030,0
1,371,128,-334,-648,-183,-217,16119,0
1,372,-208,-346,402,-218,-178,16095,0
1,373,94,-530,264,-206,-199,16118,0
1,374,-28,-264,-70,-153,49,16129,0
1,375,-94,-738,-440,-145,109,16013,0
1,376,196,-218,-244,-108,93,16042,0
1,377,-198,-762,668,11,148,16153,0
1,378,-28,24,378,5,341,16145,0
1,379,-4,128,586,-53,399,16100,0
1,380,-230,82,206,-131,271,16168,0
1,381,-208,-668,90,-117,97,16065,0
1,382,-108,128,-428,-187,50,16117,0
1,383,-198,-634,-14,-87,218,15973,0
1,384,-154,-264,218,-71,265,15974,0
1,385,-208,-80,-544,-130,397,16029,0
1,386,-466,36,-462,-134,314,16163,0
1,387,-176,82,-186,-150,67,16215,0
1,388,-434,164,436,-194,-86,16184,0
1,389,-670,-380,-314,-296,-177,16149,0
1,390,-616,-196,-462,-198,-500,16083,0
1,391,-298,336,-624,-125,-579,16073,0
1,392,-286,-218,310,-85,-542,15999,0
1,393,-276,-564,-186,-53,-418,15951,0
1,394,-96,-542,-716,-89,-347,16127,0
1,395,-196,-288,-544,-57,-295,16240,0
1,396,16,-138,136,-106,-355,16316,0
1,397,-186,-564,-336,-136,-402,16314,0
1,398,-174,-506,78,-154,-305,16191,0
1,399,72,-346,-314,-174,-187,16100,0
1,400,6,-484,-94,-251,-92,16025,0
1,401,254,-138,-498,-233,-46,15948,0
1,402,-354,-414,552,-269,44,16058,0
1,403,-50,-288,-48,-347,-1,16116,0
1,404,-254,106,276,-169,-88,16131,0
1,405,120,-680,-314,-113,-78,16189,0
1,406,50,128,-70,-127,-62,16191,0
1,407,-16,-138,206,-2,63,16140,0
1,408,72,24,240,-32,-13,16043,0
1,409,-74,-622,-174,-177,54,16054,0
1,410,-140,776,-314,-181,107,16108,0
1,411,-616,-530,424,-137,-30,16033,0
1,412,-72,106,10,-18,-149,16124,0
1,413,-356,-126,-106,10,-244,16108,0
1,414,-18,152,-220,69,-431,16217,0
1,415,-176,128,-174,58,-214,16131,0
1,416,-60,-288,-290,-18,-173,16076,0
1,417,-164,-172,-244,1,-111,16033,0
1,418,50,706,436,-130,-57,16099,0
1,419,-376,290,-278,-381,-136,16195,0
1,420,-74,-380,182,-308,-216,16273,0
1,421,176,-484,-36,-278,-215,16188,0
1,422,198,348,448,-265,-154,16095,0
1,423,446,-402,-70,-258,-85,16138,0
1,424,-74,-252,-752,-153,-184,16038,0
1,425,-218,-22,-728,-118,-150,16010,0
1,426,-332,-438,276,-52,-108,16032,0
1,427,-220,336,298,-79,-10,16015,0
1,428,86,406,-278,-158,-71,16160,0
1,429,38,290,-24,-161,-93,16211,0
1,430,-50,302,194,-260,-116,16200,0
1,431,210,232,332,-302,-101,16127,0
1,432,-210,-402,-2,-323,-108,16110,0
1,433,-6,-206,-118,-254,-112,16148,0
1,434,-84,-206,172,-154,-121,16090,0
1,435,-28,220,-220,-40,-127,15994,0
1,436,-86,244,136,-8,-164,16116,0
1,437,-212,218,-278,-50,-181,16082,0
1,438,38,-334,160,-212,-214,16099,0
1,439,92,-290,-636,-254,-184,16138,0
1,440,152,-196,472,-170,-283,16124,0
1,441,62,498,194,-312,-49,16137,0
1,442,6,-346,414,-275,7,16029,0
1,443,86,12,-36,-133,-38,16152,0
1,444,-104,-540,254,-139,-16,16158,0
1,445,-106,116,944,-84,-42,16159,0
1,446,-6,-114,-324,-80,-15,16177,0
1,447,38,-264,-348,-233,-24,16109,0
1,448,-50,-356,-82,-311,-13,16084,0
1,449,-140,-426,518,-232,10,16112,0
1,450,-140,-276,-2,-232,-68,16089,0
1,451,118,152,-220,-232,-153,16194,0
1,452,-208,-148,-360,-178,-170,16165,0
1,453,286,-92,494,-100,-274,16112,0
1,454,-286,-138,-106,-33,-224,16012,0
1,455,-40,-252,-210,-72,-207,16001,0
1,456,52,106,-544,-122,-118,16061,0
1,457,4,-380,228,-295,97,16038,0
1,458,-16,372,-24,-364,22,16162,0
1,459,-128,-206,-128,-406,-141,16223,0
1,460,198,-668,436,-403,-196,16266,0
1,461,320,-414,182,-343,-240,16208,0
1,462,-30,-10,-164,-253,-119,16117,0
1,463,-140,-518,-2,-186,-80,16025,0
1,464,72,394,56,-37,-102,16034,0
1,465,-106,314,310,-50,-35,16097,0
1,466,-72,48,-256,-144,31,16094,0
1,467,-266,-970,540,-265,76,16119,0
1,468,-244,-160,252,-241,-52,16065,0
1,469,28,-680,-60,-111,-107,16114,0
1,470,152,-264,-936,-129,-206,16095,0
1,471,28,-206,356,-49,-97,16167,0
1,472,-86,140,276,-57,-4,16104,0
1,473,84,-276,44,-210,37,16066,0
1,474,-72,-622,-612,-253,151,15996,0
1,475,-6,-92,-520,-296,32,15962,0
1,476,-142,-356,322,-367,-114,16151,0
1,477,188,140,-324,-319,-193,16131,0
1,478,-264,-866,-48,-232,-216,16171,0
1,479,6,-56,-648,-179,-25,16082,0
1,480,-378,-762,-152,-131,97,16018,0
1,481,-162,198,-556,-45,297,15981,0
1,482,-186,128,-440,-35,265,16146,0
1,483,-50,2,276,-50,167,16263,0
1,484,4,580,-140,-161,80,16288,0
1,485,-230,418,-706,-416,-38,16283,0
1,486,-28,-402,-70,-421,-158,16162,0
1,487,-94,106,390,-392,-79,16056,0
1,488,-196,-380,402,-254,-107,15901,0
1,489,4,-392,-462,-128,-71,15946,0
1,490,16,-264,-2,-49,-139,16093,0
1,491,-176,-114,-106,-6,-105,16124,0
1,492,-42,358,-578,58,-176,16177,0
1,493,-298,-438,68,168,-117,16048,0
1,494,-50,128,-24,145,-49,16007,0
1,495,-186,718,-474,-24,43,16033,0
1,496,30,556,-532,-334,-94,16262,0
1,497,28,152,-94,-720,-193,16366,0
1,498,176,-496,182,-794,-271,16400,0
1,499,16,12,-266,-599,-176,16178,0
1,500,154,-1258,414,-360,-44,15983,0
1,501,-116,-656,-150,-41,74,15912,0
1,502,72,-426,-314,82,120,16025,0
1,503,-84,-114,-186,22,38,16192,0
1,504,234,-332,324,-257,-8,16280,0
1,505,154,-10,436,-377,37,16178,0
1,506,64,-542,276,-322,56,15931,0
1,507,-184,82,-428,-253,151,15905,0
1,508,-176,428,240,-189,156,15875,0
1,509,-140,-818,424,-101,163,16130,0
1,510,-28,428,-762,-115,114,16252,0
1,511,74,-346,414,-288,11,16306,0
1,512,50,-22,368,-396,12,16329,0
1,513,-108,-460,32,-481,-126,16152,0
1,514,-286,-554,-220,-308,-60,15950,0
1,515,-266,-438,-428,-262,4,15967,0
1,516,-264,-80,-394,-117,-21,15964,0
1,517,-470,588,-94,-39,-58,16085,0
1,518,-356,-80,-14,69,-133,16192,0
1,519,-94,24,-174,-84,-194,16162,0
2,520,-220,-1916,-2,942,-759,16529,0
2,521,670,-1650,-1328,1094,-1075,16320,0
2,522,794,-992,-1028,1189,-1110,16067,0
2,523,1336,-646,-878,1317,-871,15852,0
2,524,1416,336,-1212,1183,-526,15545,0
2,525,1032,12,-1616,875,-376,15436,0
2,526,1178,1042,-762,628,-340,15286,0
2,527,1066,856,-798,517,-299,15242,0
2,528,2090,938,-1190,427,-100,15223,0
2,529,2056,1458,-660,246,407,15475,0
2,530,1244,1284,472,94,523,15620,0
2,531,648,256,-174,-56,276,15789,0
2,532,672,-622,68,316,151,15989,0
2,533,1154,776,852,300,-201,16030,0
2,534,1088,568,90,452,-248,16105,0
2,535,1258,2,782,403,151,16216,0
2,536,446,-138,598,583,535,16287,0
2,537,-60,-1038,378,589,303,16396,0
2,538,376,-160,644,569,-38,16545,0
2,539,794,-184,136,694,-252,16534,0
2,540,1270,-300,540,892,-410,16433,0
2,541,2128,430,-172,744,-349,16203,0
2,542,1798,-658,378,429,159,16126,0
2,543,1154,60,528,344,659,15881,0
2,544,444,-1328,472,526,782,15689,0
2,545,242,-970,-2,900,623,15615,0
2,546,164,-750,402,1152,508,15642,0
2,547,286,-1234,276,994,296,15726,0
2,548,366,82,-994,874,-28,15870,0
2,549,1358,-102,-612,874,-56,15955,0
2,550,1518,348,332,458,543,16207,0
2,551,1460,-346,390,70,779,16423,0
2,552,974,-1720,44,244,783,16341,0
2,553,684,-762,286,697,437,16200,0
2,554,512,-1338,194,897,230,16038,0
2,555,1134,-10,-14,1252,332,15972,0
2,556,874,-242,-244,1018,455,15991,0
2,557,998,106,-48,864,581,16008,0
2,558,412,-206,68,689,960,15864,0
2,559,444,-356,-60,738,794,15720,0
2,560,266,-44,368,842,680,15657,0
2,561,-32,230,378,1092,1010,15813,0
2,562,-106,12,390,865,774,16143,0
2,563,714,36,-220,755,543,16366,0
2,564,818,116,332,757,667,16347,0
2,565,1392,464,-520,745,973,16280,0
2,566,650,-356,-290,861,1267,16185,0
2,567,714,186,414,750,1285,15955,0
2,568,344,-218,828,692,1113,15920,0
2,569,264,-460,736,871,823,16025,0
2,570,174,-506,-290,786,704,15996,0
2,571,806,-1026,-36,1048,563,15984,0
2,572,964,-554,-786,1166,545,15922,0
2,573,232,-196,-370,1187,788,15775,0
2,574,50,-252,240,1287,1046,15693,0
2,575,-16,48,460,852,1170,15772,0
2,576,-424,-426,598,501,1386,16084,0
2,577,-852,-542,586,364,1340,16136,0
2,578,-1098,-472,770,328,1050,16121,0
2,579,-884,-738,136,648,754,16003,0
2,580,-492,-554,182,854,523,16129,0
2,581,-232,-1074,436,803,495,16105,0
2,582,-154,-484,252,678,650,16297,0
2,583,-310,-1512,632,663,788,16211,0
2,584,-816,-1790,482,866,1016,16083,0
2,585,-1416,-1490,436,1011,762,15729,0
2,586,-1428,-934,298,1405,553,15526,0
2,587,-750,-368,-48,1313,347,15578,0
2,588,-424,-1142,44,1068,575,15625,0
2,589,-342,-196,-14,1309,691,15623,0
2,590,-490,-44,-14,1427,708,15489,0
2,591,-998,-80,44,1441,804,15486,0
2,592,-1022,-44,356,1650,677,15556,0
2,593,-512,776,194,1613,354,15681,0
2,594,62,2220,-498,1684,258,15863,0
2,595,84,1422,-266,1394,704,16006,0
2,596,-4,1100,-360,1179,990,16074,0
2,597,-714,822,32,1024,1208,16192,0
2,598,-940,672,102,1032,891,16175,0
2,599,-604,590,-256,944,496,16333,0
2,600,-458,70,148,981,351,16438,0
2,601,118,2,-14,1043,413,16465,0
2,602,-446,48,-164,909,846,16270,0
2,603,-794,-402,-670,961,1077,15970,0
2,604,-1178,810,-118,1064,959,15749,0
2,605,-738,776,322,1012,719,15805,0
2,606,-590,1260,-140,808,686,16040,0
2,607,-492,1330,472,443,716,16271,0
2,608,-762,-414,194,457,608,16404,0
2,609,-886,-102,-416,692,670,16294,0
2,610,-1346,94,-48,703,821,16086,0
2,611,-1100,-310,448,659,787,15961,0
2,612,-998,486,252,794,522,15964,0
2,613,-468,-264,298,710,442,16021,0
2,614,-142,718,748,632,579,16142,0
2,615,-772,-426,-394,312,848,16228,0
2,616,-1312,-970,-302,512,790,16214,0
2,617,-1304,-322,-2,712,468,16174,0
2,618,-850,-450,252,679,329,16320,0
2,619,-302,104,-532,812,149,16433,0
2,620,434,648,-198,748,165,16501,0
2,621,208,232,494,673,445,16546,0
2,622,230,198,-556,585,685,16441,0
2,623,50,-184,-786,621,725,16185,0
2,624,94,-450,22,804,828,15921,0
2,625,-164,-230,-118,904,832,15702,0
2,626,-62,-56,-716,809,796,15591,0
2,627,-40,694,-48,673,546,15778,0
2,628,-356,568,-14,553,409,15893,0
2,629,-84,256,-428,532,200,16056,0
2,630,-94,278,78,440,275,16251,0
2,631,-514,510,-94,425,246,16285,0
2,632,-320,428,-682,545,51,16290,0
2,633,-286,-704,-474,515,4,16288,0
2,634,-18,-346,-912,559,-15,16152,0
2,635,-526,-750,-416,539,227,15957,0
2,636,-794,-334,-82,555,467,15742,0
2,637,-1278,-402,414,853,293,15543,0
2,638,-1336,636,472,913,77,15602,0
2,639,-750,626,598,790,-83,15904,0
2,640,-568,856,-1178,690,2,16380,0
2,641,62,568,-820,337,-71,16693,0
2,642,-108,244,-14,310,-79,16841,0
2,643,286,-610,-912,342,-126,16714,0
2,644,-266,-334,-1166,353,-37,16425,0
2,645,-818,-206,-348,373,150,16167,0
2,646,-954,-1558,-1398,560,-10,15914,0
2,647,-312,-694,-1248,815,-283,15714,0
2,648,-6,452,-1098,941,-436,15667,0
2,649,568,-80,-1812,799,-513,15816,0
2,650,648,-68,-2758,624,-200,15950,0
2,651,434,-450,-1328,441,188,16064,0
2,652,88,-540,-704,72,393,16061,0
2,653,-254,-472,-948,14,428,16082,0
2,654,-986,-1604,-1570,312,335,15839,0
2,655,-412,-426,-1466,439,145,15694,0
2,656,-220,-1038,-1444,531,205,15737,0
2,657,-536,-518,-728,536,217,15740,0
2,658,-568,-184,-566,544,229,15778,0
2,659,-740,-172,-174,620,405,15884,0
2,660,-964,544,-118,645,376,15886,0
2,661,-1708,220,-612,720,161,15936,0
2,662,-1596,938,332,732,-104,16139,0
2,663,-1270,-368,102,657,-504,16275,0
2,664,-920,428,-590,517,-728,16583,0
2,665,-534,314,-752,355,-683,16735,0
2,666,-650,-762,-118,294,-738,16804,0
2,667,-672,-426,-786,534,-645,16571,0
2,668,-480,-1304,-1144,689,-544,16290,0
2,669,-390,-206,-902,783,-624,16129,0
2,670,16,-56,-636,827,-516,16059,0
2,671,-220,116,-1444,631,-445,15950,0
2,672,162,244,-958,389,-384,16064,0
2,673,-28,-44,78,406,-255,16094,0
2,674,140,-160,-1120,454,-305,16072,0
2,675,-72,-472,-832,387,-181,16059,0
2,676,-140,-92,-60,561,-82,15992,0
2,677,-470,-208,-544,563,-9,15958,0
2,678,-570,-126,-728,677,-123,15981,0
2,679,-434,232,-278,725,-154,16017,0
2,680,-344,580,424,665,-184,16022,0
2,681,36,358,-164,635,-358,16020,0
2,682,-118,140,-716,548,-259,16043,0
2,683,-332,868,-762,426,-209,16163,0
2,684,-178,774,-360,418,-226,16216,0
2,685,-658,-264,-890,457,-77,16279,0
2,686,-502,-264,-324,434,-334,16381,0
2,687,-278,-392,240,602,-364,16243,0
2,688,-310,-1050,-256,618,-390,16113,0
2,689,-266,-854,-394,718,-465,16023,0
2,690,-188,34,-798,753,-556,15933,0
2,691,-52,-56,-94,571,-419,15920,0
2,692,-266,-518,-510,512,-388,15980,0
2,693,-412,290,-578,555,-365,15958,0
2,694,-378,-148,-174,506,-301,16077,0
2,695,-310,-126,-220,395,-215,16130,0
2,696,-716,-564,368,339,-418,16140,0
2,697,-650,70,-302,450,-453,16197,0
2,698,-456,-634,56,561,-552,16156,0
2,699,-548,-888,-94,652,-562,16147,0
2,700,-492,568,-428,827,-575,16088,0
2,701,-548,336,78,883,-637,16092,0
2,702,-230,590,-106,776,-472,16123,0
2,703,-424,394,-890,703,-479,16105,0
2,704,-434,140,-24,527,-390,16202,0
2,705,-244,290,-164,477,-440,16133,0
2,706,-302,-752,-624,577,-430,16076,0
2,707,-302,-532,-256,495,-483,16024,0
2,708,-480,-356,-2,460,-465,16105,0
2,709,-286,476,-256,592,-406,16069,0
2,710,-402,-196,-60,605,-329,16051,0
2,711,-188,994,-544,380,-365,16107,0
2,712,-580,-10,528,293,-404,16119,0
2,713,-390,60,102,310,-555,16037,0
2,714,-302,-94,-106,261,-717,16084,0
2,715,4,-10,690,309,-889,16093,0
2,716,-62,-68,-324,460,-767,16048,0
2,717,-278,-10,-1074,568,-832,15999,0
2,718,-196,1088,-14,537,-752,16136,0
2,719,-324,520,-428,245,-630,16275,0
2,720,-162,210,-82,249,-546,16267,0
2,721,-286,82,-290,220,-541,16185,0
2,722,-108,-10,528,380,-743,16150,0
2,723,208,382,10,469,-876,16089,0
2,724,72,382,-636,323,-736,16076,0
2,725,152,106,298,272,-588,16058,0
2,726,-118,244,378,123,-590,16162,0
2,727,-164,186,-314,-13,-693,16175,0
2,728,72,-160,228,-133,-692,16054,0
2,729,150,-636,1094,-165,-710,15919,0
2,730,-424,-750,1198,-82,-419,15733,0
2,731,-862,-1338,770,153,-302,15438,0
2,732,-874,-346,194,348,-299,15307,0
2,733,-1268,-438,1106,593,-267,15521,0
2,734,-1618,-310,598,562,-206,15865,0
2,735,-1576,322,714,468,-323,16345,0
2,736,-1146,-68,1440,416,-540,16651,0
2,737,-782,-196,610,262,-820,16831,0
2,738,-176,-554,-106,240,-819,16808,0
2,739,-308,116,286,477,-773,16599,0
2,740,-198,152,-70,471,-802,16436,0
2,741,614,902,-740,614,-899,16292,0
2,742,772,752,56,458,-838,16222,0
2,743,1146,834,136,164,-798,16069,0
2,744,1010,-102,-348,39,-751,15923,0
2,745,504,-644,-1096,45,-747,15713,0
2,746,-122,-1272,-752,285,-712,15561,0
2,747,-400,-610,-36,412,-678,15493,0
2,748,-672,-160,90,712,-789,15653,0
2,749,-728,-300,218,626,-993,15983,0
2,750,-560,808,-336,452,-1104,16334,0
2,751,-356,440,-198,131,-1070,16435,0
2,752,-108,36,-164,-119,-1064,16538,0
2,753,-84,174,-70,-177,-896,16357,0
2,754,-726,-1050,598,-14,-753,16187,0
2,755,-862,-1234,264,396,-511,15876,0
2,756,-594,474,-24,584,-558,15846,0
2,757,-592,1284,10,668,-701,15955,0
2,758,-120,522,160,400,-757,16334,0
2,759,38,406,-636,118,-810,16542,0
2,760,366,210,-24,-116,-690,16649,0
2,761,500,-252,-428,-203,-667,16524,0
2,762,322,-460,-370,-22,-706,16237,0
2,763,342,128,-1028,11,-684,16145,0
2,764,694,614,-924,195,-795,15967,0
2,765,760,-138,332,28,-868,15959,0
2,766,836,-36,-498,-39,-794,15958,0
2,767,638,-900,-670,95,-843,15859,0
2,768,140,614,-2,138,-730,15762,0
2,769,-244,-484,-2,60,-654,15676,0
2,770,-378,2,56,-3,-773,15675,0
2,771,-684,-34,322,86,-823,15712,0
2,772,-526,198,852,177,-968,15809,0
2,773,-264,-10,528,85,-1014,16013,0
2,774,-480,-484,-290,174,-1017,16140,0
2,775,-830,-148,126,54,-736,16206,0
2,776,-794,-126,506,272,-808,16331,0
2,777,-334,-460,-174,116,-772,16318,0
2,778,-682,-300,436,54,-642,16409,0
2,779,-412,532,378,38,-489,16274,0
3,780,374,-1156,-994,312,-718,15697,0
3,781,106,-1084,-1086,285,-786,15964,0
3,782,-188,-752,-428,630,-679,16168,0
3,783,186,-1074,286,627,-1115,16105,0
3,784,16,-356,-278,1409,-1308,16173,0
3,785,208,-530,-406,1448,-1674,16200,0
3,786,850,-726,-994,1667,-2162,16388,0
3,787,952,-1396,-1052,1865,-1916,16263,0
3,788,896,-1130,-740,1800,-1615,16204,0
3,789,522,-1492,-14,1817,-1352,16112,0
3,790,-174,-1304,1060,2046,-1288,15913,0
3,791,-86,-160,978,1987,-1701,15657,0
3,792,276,464,126,2000,-1749,15612,0
3,793,354,602,172,1830,-1766,15693,0
3,794,466,1018,-612,1567,-1689,15796,0
3,795,50,972,-590,1237,-1468,15842,0
3,796,276,1272,-174,1175,-1332,15756,0
3,797,-478,-44,90,1072,-1404,15736,0
3,798,-694,636,494,1006,-1223,15692,0
3,799,-1542,10,-164,867,-1140,15703,0
3,800,-2184,-856,286,812,-1388,15707,0
3,801,-1776,-322,528,911,-1612,15801,0
3,802,-1058,0,114,1016,-1728,15951,0
3,803,-1066,24,472,1111,-1770,16053,0
3,804,-640,-832,598,1297,-2224,16126,0
3,805,-592,210,172,1418,-2328,16174,0
3,806,-808,-346,-590,1347,-2380,16110,0
3,807,-490,-622,-140,1336,-2146,15945,0
3,808,-402,-92,-106,1382,-1742,15830,0
3,809,-602,-218,-556,1370,-1574,15712,0
3,810,-606,900,-360,1420,-1479,15702,0
3,811,-650,1100,344,1214,-1453,15713,0
3,812,-716,752,56,1100,-1631,15706,0
3,813,-672,1100,-164,1029,-2014,15832,0
3,814,-582,914,506,891,-2337,16004,0
3,815,-594,774,-302,861,-2106,16002,0
3,816,-730,808,-278,1024,-2029,15880,0
3,817,-956,982,414,1279,-1991,15906,0
3,818,-1110,948,172,1491,-2165,15816,0
3,819,-706,1168,-266,1490,-2451,16027,0
3,820,-494,1258,114,1249,-2588,16110,0
3,821,-84,1110,276,1192,-2662,16156,0
3,822,16,1978,-394,1157,-2715,16141,0
3,823,590,1214,-694,1053,-2499,16119,0
3,824,804,2022,-844,953,-2402,16113,0
3,825,636,1654,-1350,893,-2113,16159,0
3,826,154,1318,-1004,501,-2068,15989,0
3,827,-118,1204,-694,480,-2399,15917,0
3,828,-140,360,-694,632,-2643,15871,0
3,829,218,798,-820,589,-2693,15759,0
3,830,-18,452,-694,536,-2417,15922,0
3,831,-74,856,-936,595,-2244,15983,0
3,832,84,1364,-936,565,-2056,16172,0
3,833,-152,996,-1132,257,-1937,16376,0
3,834,-370,530,-244,-63,-2065,16356,0
3,835,378,822,632,-131,-2550,16263,0
3,836,614,464,-290,90,-2854,16216,0
3,837,1268,568,-624,242,-2932,16327,0
3,838,1852,1374,-278,408,-2772,16318,0
3,839,2066,1248,-544,735,-2297,16267,0
3,840,1696,626,-1640,195,-2495,16097,0
3,841,1244,1272,-648,744,-1554,16447,0
3,842,1178,788,-336,55,-1699,15922,0
3,843,1538,1434,-348,62,-2213,15888,0
3,844,2226,1260,-452,271,-2328,15970,0
3,845,3162,2036,-706,413,-2445,16133,0
3,846,3344,2452,-1016,315,-2159,16180,0
3,847,3284,2356,-1374,241,-1378,16291,0
3,848,2902,1838,-1570,46,-1045,16124,0
3,849,2102,1204,-290,-81,-919,15910,0
3,850,1492,1838,-1212,-56,-980,15882,0
3,851,1434,970,-982,-212,-1255,15852,0
3,852,1246,1296,-486,-175,-1401,15778,0
3,853,1322,1560,-1236,-313,-1315,15848,0
3,854,1022,1504,-1790,-532,-1147,15864,0
3,855,1334,1064,-1374,-618,-1044,15903,0
3,856,896,1284,-728,-678,-680,15895,0
3,857,310,694,-1444,-847,-550,15889,0
3,858,-220,-496,-232,-849,-639,15891,0
3,859,-876,-94,172,-544,-876,15730,0
3,860,-480,-334,-164,-495,-1126,15891,0
3,861,-660,-506,-348,-358,-1463,15928,0
3,862,-446,498,-706,-343,-1363,16034,0
3,863,-434,-542,-682,-339,-1279,16208,0
3,864,-616,-148,-106,-514,-1017,16232,0
3,865,-550,68,-128,-490,-1032,16175,0
3,866,-512,-310,264,-382,-1074,16067,0
3,867,-222,-532,-24,-452,-1193,16050,0
3,868,-378,36,-590,-462,-1310,16066,0
3,869,-322,-346,-198,-438,-1297,16016,0
3,870,-500,-438,644,-432,-1215,15900,0
3,871,-252,-438,-348,-427,-1194,15919,0
3,872,-458,-808,-48,-357,-1284,15951,0
3,873,-482,254,126,-269,-1354,16177,0
3,874,-370,-128,22,-440,-1308,16259,0
3,875,18,-114,-70,-605,-1175,16315,0
3,876,-424,-692,240,-657,-1043,16197,0
3,877,-244,-288,540,-495,-1145,15979,0
3,878,-144,530,-244,-321,-1188,16028,0
3,879,-460,-914,172,-218,-1257,16061,0
3,880,-424,-288,194,-261,-1364,16129,0
3,881,-558,-600,-266,-305,-1347,16088,0
3,882,-256,-832,-498,-398,-1336,16130,0
3,883,-212,-70,-314,-450,-1371,16147,0
3,884,254,-380,-498,-625,-1303,16203,0
3,885,-402,-206,-994,-557,-1201,16128,0
3,886,36,68,-174,-476,-1300,16053,0
3,887,-118,-576,-2,-513,-1359,16013,0
3,888,-18,174,-70,-561,-1370,16108,0
3,889,164,-276,-406,-533,-1424,16121,0
3,890,388,580,-266,-502,-1318,16031,0
3,891,140,-276,-462,-423,-1275,16083,0
3,892,-50,302,-314,-343,-1273,16065,0
3,893,-436,-302,-232,-317,-1212,16028,0
3,894,-412,220,390,-336,-1211,16083,0
3,895,-198,418,-360,-369,-1169,16088,0
3,896,174,2,-336,-455,-1204,16203,0
3,897,432,22,-348,-591,-1197,16195,0
3,898,-40,-184,-36,-643,-1145,16140,0
3,899,376,232,-532,-704,-1049,16000,0
3,900,176,314,-164,-595,-1102,15983,0
3,901,-8,-104,472,-567,-1274,16072,0
3,902,82,104,160,-485,-1380,16049,0
3,903,28,-576,-60,-393,-1336,16132,0
3,904,16,-300,-682,-401,-1192,15876,0
3,905,26,-660,-532,-333,-1149,15870,0
3,906,-312,288,228,-319,-1152,15872,0
3,907,-8,162,-474,-455,-1243,16008,0
3,908,140,-460,44,-443,-1239,16123,0
3,909,26,-174,-220,-483,-1221,16027,0
3,910,-164,-992,126,-507,-1081,16011,0
3,911,174,70,172,-484,-1056,15966,0
3,912,-28,-334,378,-393,-1110,16022,0
3,913,92,-232,-578,-388,-1104,16114,0
3,914,92,230,-808,-382,-1157,16197,0
3,915,96,-68,-118,-487,-1288,16283,0
3,916,298,-750,-360,-578,-1293,16168,0
3,917,-52,-518,-566,-591,-1210,16039,0
3,918,106,24,632,-554,-1207,15971,0
3,919,310,-102,-94,-552,-1202,15969,0
3,920,274,-104,-256,-546,-1172,16104,0
3,921,296,-128,-70,-641,-1157,16197,0
3,922,210,-206,240,-701,-1059,16079,0
3,923,276,324,-48,-757,-975,15959,0
3,924,-86,-264,206,-799,-814,15775,0
3,925,-334,-126,148,-707,-765,15713,0
3,926,-528,-716,114,-603,-1038,15888,0
3,927,-288,-414,-220,-511,-1269,16026,0
3,928,-254,-80,32,-261,-1287,16182,0
3,929,-52,-518,852,-308,-1236,16254,0
3,930,-310,-102,182,-222,-1193,16217,0
3,931,-6,348,-462,-317,-1064,16267,0
3,932,220,372,78,-501,-982,16288,0
3,933,-52,12,228,-471,-958,16144,0
3,934,84,-44,-520,-474,-1146,16132,0
3,935,84,244,-636,-457,-1219,15990,0
3,936,276,2,44,-526,-1172,15946,0
3,937,48,80,-452,-601,-1149,16028,0
3,938,140,406,126,-543,-1151,16107,0
3,939,-142,-310,-128,-440,-1210,16081,0
3,940,566,600,68,-393,-1389,16047,0
3,941,-50,-102,-174,-453,-1324,16036,0
3,942,-62,-866,286,-563,-1268,15937,0
3,943,-62,-496,68,-634,-1114,15892,0
3,944,-198,-796,-394,-666,-1016,15944,0
3,945,-310,-288,-394,-563,-1082,15995,0
3,946,-154,174,102,-451,-1128,16022,0
3,947,-220,-356,-762,-402,-1192,16164,0
3,948,28,174,-532,-430,-1200,16223,0
3,949,28,-206,160,-456,-1154,16153,0
3,950,-186,-646,-740,-584,-1053,16120,0
3,951,14,-1110,332,-572,-1012,16131,0
3,952,-320,-276,436,-468,-1061,16020,0
3,953,72,-762,-244,-482,-1139,16063,0
3,954,106,-414,-440,-528,-1184,16122,0
3,955,216,10,-94,-599,-1165,16126,0
3,956,106,-530,-220,-629,-1056,16129,0
3,957,434,-288,-370,-609,-1035,16114,0
3,958,140,-218,-82,-556,-1128,16122,0
3,959,108,-114,390,-506,-1183,16132,0
3,960,74,-172,-302,-353,-1265,16055,0
3,961,26,-290,-740,-323,-1307,16045,0
3,962,50,-92,22,-364,-1253,15971,0
3,963,-72,-472,-220,-466,-1043,16032,0
3,964,26,-1098,-878,-532,-938,16054,0
3,965,26,-648,102,-506,-893,16058,0
3,966,310,-726,-14,-487,-1025,16102,0
3,967,40,-658,-798,-443,-1136,16113,0
3,968,352,-694,-60,-471,-1199,16160,0
3,969,186,94,298,-548,-1282,16192,0
3,970,500,580,78,-646,-1290,16206,0
3,971,398,-636,-578,-637,-1213,16105,0
3,972,582,636,414,-603,-1121,15985,0
3,973,332,12,-278,-516,-1100,15910,0
3,974,106,-668,-682,-547,-965,15883,0
3,975,-244,152,-462,-561,-793,15846,0
3,976,-256,-140,414,-527,-824,15962,0
3,977,-144,0,-232,-404,-956,15996,0
3,978,2,-462,-324,-261,-1260,16227,0
3,979,400,-704,322,-244,-1379,16291,0
3,980,612,-486,-510,-214,-1255,16247,0
3,981,692,-554,-498,-324,-1009,16111,0
3,982,186,-472,-406,-542,-792,16072,0
3,983,38,-392,68,-665,-705,15986,0
3,984,-218,-160,-786,-529,-775,16083,0
3,985,614,-114,-544,-414,-1043,16146,0
3,986,-6,-34,-60,-462,-1151,16145,0
3,987,128,-472,-278,-475,-1119,16080,0
3,988,208,-380,-302,-542,-931,15960,0
3,989,28,-808,-36,-515,-839,15821,0
3,990,242,-206,-474,-415,-880,15878,0
3,991,-164,-866,-1040,-325,-1052,16066,0
3,992,354,-172,-198,-345,-1064,16252,0
3,993,84,-634,-348,-414,-893,16279,0
3,994,152,-692,-360,-561,-762,16282,0
3,995,118,-450,-302,-547,-722,16110,0
3,996,50,-750,356,-425,-799,15954,0
3,997,116,-960,252,-343,-943,16002,0
3,998,162,-172,44,-437,-1067,16159,0
3,999,230,-472,276,-453,-970,16153,0
3,1000,298,-634,240,-515,-868,16129,0
3,1001,184,-648,-510,-535,-763,16044,0
3,1002,352,10,-2,-498,-761,15888,0
3,1003,-132,-728,136,-357,-740,15798,0
3,1004,-74,-1004,-290,-171,-811,15884,0
3,1005,-324,-428,182,-72,-956,16009,0
3,1006,-88,-70,32,-128,-1111,16185,0
3,1007,128,152,-278,-103,-1013,16348,0
3,1008,354,-496,-544,-194,-919,16280,0
3,1009,456,-1224,276,-283,-758,16263,0
3,1010,276,-496,-290,-261,-687,16120,0
3,1011,320,-1270,-336,-246,-743,16029,0
3,1012,128,-44,264,-178,-759,15949,0
3,1013,28,-450,-186,-252,-654,16018,0
3,1014,-64,-740,-278,-256,-714,16010,0
3,1015,-74,-772,-14,-296,-804,16118,0
3,1016,-278,-784,298,-179,-808,16055,0
3,1017,130,-692,-462,-96,-989,16128,0
3,1018,342,-1074,240,-55,-1003,16155,0
3,1019,184,-670,206,-16,-892,16111,0
3,1020,-84,-738,-370,-39,-741,16110,0
3,1021,96,-1016,-94,-148,-568,16121,0
3,1022,116,-440,586,-194,-493,16059,0
3,1023,-266,-1178,332,-201,-488,16097,0
3,1024,-144,-1052,-290,-165,-635,16044,0
3,1025,14,-1076,-48,-116,-754,16090,0
3,1026,-62,-472,448,-77,-737,16142,0
3,1027,-50,-484,-256,-49,-684,16148,0
3,1028,174,-934,-244,36,-699,16160,0
3,1029,-76,-1144,126,243,-791,16115,0
3,1030,128,-934,448,325,-865,16125,0
3,1031,342,-588,-82,239,-926,16152,0
3,1032,310,-704,472,200,-803,16068,0
3,1033,72,-68,172,152,-609,16036,0
3,1034,-8,-1214,90,145,-610,15977,0
3,1035,-156,-336,322,295,-768,16081,0
3,1036,162,-564,-164,327,-890,16169,0
3,1037,-232,-148,-762,253,-911,16210,0
3,1038,82,-602,-336,256,-908,16150,0
3,1039,184,-590,-290,188,-746,16024,0
4,1040,184,-1618,44,1270,-894,16202,0
4,1041,320,-460,78,1285,-1034,15925,0
4,1042,50,-1698,56,1257,-1154,15712,0
4,1043,194,-602,-406,1265,-1206,15726,0
4,1044,488,-12,-360,1311,-1231,15637,0
4,1045,456,220,586,1562,-1054,15662,0
4,1046,400,764,-660,1524,-916,15719,0
4,1047,534,186,-36,1418,-927,15893,0
4,1048,400,290,194,1381,-1086,16089,0
4,1049,704,372,-220,1375,-901,16212,0
4,1050,522,-104,-336,1228,-778,16275,0
4,1051,120,-102,-14,952,-545,16302,0
4,1052,-108,532,-48,685,-567,16271,0
4,1053,-130,-484,-428,780,-737,16097,0
4,1054,196,-230,-394,812,-892,16061,0
4,1055,-18,-472,206,967,-883,15988,0
4,1056,62,-196,-498,1118,-894,16052,0
4,1057,614,186,-198,1248,-860,15975,0
4,1058,36,-162,378,1337,-811,15955,0
4,1059,50,-114,182,1434,-857,15905,0
4,1060,-62,70,228,1426,-985,15922,0
4,1061,174,324,-278,1421,-1066,15912,0
4,1062,186,278,-128,1418,-802,15970,0
4,1063,30,-80,-1040,1194,-775,15955,0
4,1064,-96,94,-266,1189,-728,15856,0
4,1065,216,-348,332,1238,-568,15902,0
4,1066,-210,152,-36,1170,-541,16009,0
4,1067,-178,530,-382,1013,-692,16081,0
4,1068,-110,-266,322,1054,-751,16232,0
4,1069,-154,-172,424,985,-776,16272,0
4,1070,-222,-1006,356,991,-845,16249,0
4,1071,-30,268,-210,1016,-1015,16206,0
4,1072,216,-186,-164,1149,-1017,16097,0
4,1073,456,-992,-440,1206,-858,16044,0
4,1074,162,-10,-220,1220,-733,15959,0
4,1075,240,-810,528,1194,-819,15876,0
4,1076,174,-496,-798,1241,-856,15977,0
4,1077,374,-278,182,1299,-796,15960,0
4,1078,-18,-242,276,1360,-754,15974,0
4,1079,284,334,-682,1365,-770,16034,0
4,1080,218,-242,-14,1238,-782,16050,0
4,1081,-448,68,32,1099,-637,16177,0
4,1082,-62,-114,-24,1010,-606,16175,0
4,1083,-186,-264,32,1015,-689,16065,0
4,1084,-6,24,424,1137,-689,16034,0
4,1085,-212,-740,-94,1176,-775,15956,0
4,1086,38,406,-370,1208,-840,15918,0
4,1087,196,-10,424,1248,-839,16052,0
4,1088,62,-264,944,1196,-807,16143,0
4,1089,28,-658,-198,1113,-721,16143,0
4,1090,152,-726,22,1043,-770,16124,0
4,1091,172,-520,368,1088,-803,16098,0
4,1092,196,-414,-60,1348,-861,15974,0
4,1093,492,-518,-24,1311,-788,15879,0
4,1094,510,-336,-210,1274,-819,16006,0
4,1095,434,70,-24,1531,-548,15984,0
4,1096,28,-518,126,1296,-458,15925,0
4,1097,28,476,218,1250,-532,15926,0
4,1098,374,346,506,1267,-599,15857,0
4,1099,162,-44,56,1078,-791,15963,0
4,1100,310,198,-48,1043,-829,16080,0
4,1101,556,484,424,1421,-805,16093,0
4,1102,648,868,10,1456,-802,16111,0
4,1103,286,1064,-452,1393,-749,16105,0
4,1104,658,1318,-428,1151,-722,16157,0
4,1105,894,820,298,877,-754,16110,0
4,1106,704,152,-370,687,-793,16037,0
4,1107,692,-576,-198,679,-726,15962,0
4,1108,308,22,966,781,-645,15949,0
4,1109,726,36,322,1158,-542,15807,0
4,1110,252,198,344,1529,-275,16003,0
4,1111,172,912,344,1585,-178,16205,0
4,1112,216,1062,378,1466,-90,16259,0
4,1113,28,174,-590,1191,-210,16305,0
4,1114,16,106,-232,943,-370,16273,0
4,1115,296,-104,356,612,-508,16169,0
4,1116,128,-426,-314,577,-505,16036,0
4,1117,274,-70,172,737,-474,15886,0
4,1118,28,140,552,977,-321,15878,0
4,1119,-368,174,78,1132,-178,15929,0
4,1120,-526,382,-198,1294,-239,15977,0
4,1121,-368,602,32,1354,-328,16105,0
4,1122,-156,312,194,1299,-462,16179,0
4,1123,186,128,-648,1003,-626,16291,0
4,1124,62,-196,-48,875,-515,16292,0
4,1125,152,-242,264,812,-451,16179,0
4,1126,-426,-694,-82,799,-254,16066,0
4,1127,-674,-670,56,834,-256,15927,0
4,1128,-98,68,102,1014,-326,15884,0
4,1129,-176,-264,252,1002,-461,16037,0
4,1130,186,-10,44,848,-628,16070,0
4,1131,-40,-762,518,851,-579,16203,0
4,1132,16,-1386,564,1009,-578,16119,0
4,1133,-392,-694,644,1204,-568,15990,0
4,1134,82,-706,-510,1322,-438,15945,0
4,1135,-128,302,-70,1423,-436,15961,0
4,1136,-110,1016,598,1310,-470,15920,0
4,1137,106,-68,-174,1058,-588,16101,0
4,1138,208,244,68,893,-580,16228,0
4,1139,118,-276,-106,670,-602,16195,0
4,1140,432,634,-452,598,-601,16278,0
4,1141,152,-518,-198,704,-422,16237,0
4,1142,-74,302,148,906,-275,16098,0
4,1143,152,12,-382,1001,-353,15941,0
4,1144,-144,-428,-140,1080,-427,16030,0
4,1145,354,510,-256,949,-502,16123,0
4,1146,138,-24,-82,930,-423,16205,0
4,1147,-176,-576,-820,1011,-373,16096,0
4,1148,-336,-290,-256,1128,-374,15994,0
4,1149,184,-440,-232,1251,-419,16021,0
4,1150,332,-564,-866,1113,-379,15909,0
4,1151,60,-244,-462,954,-330,15964,0
4,1152,-266,372,874,824,-450,16044,0
4,1153,128,174,436,764,-542,16173,0
4,1154,94,48,68,802,-580,16159,0
4,1155,-96,-230,668,861,-492,16102,0
4,1156,-186,-668,494,902,-393,16067,0
4,1157,-232,-992,528,905,-366,16078,0
4,1158,-94,48,-106,974,-292,16009,0
4,1159,-28,-138,322,981,-430,15997,0
4,1160,116,-856,-266,998,-407,16083,0
4,1161,-200,426,22,996,-387,16123,0
4,1162,-188,508,286,1017,-483,16128,0
4,1163,-244,-460,194,1070,-374,16226,0
4,1164,252,36,182,1118,-480,16195,0
4,1165,50,-762,286,1121,-388,16239,0
4,1166,140,210,-302,1155,-462,16161,0
4,1167,82,-266,102,1198,-355,15990,0
4,1168,194,-232,714,1055,-310,15870,0
4,1169,-424,-276,448,983,-272,15920,0
4,1170,26,254,-498,987,-393,15907,0
4,1171,-8,-12,-348,995,-438,15969,0
4,1172,4,-148,-360,1047,-400,15992,0
4,1173,-142,12,-590,1034,-274,16069,0
4,1174,84,-184,-510,1083,-293,16051,0
4,1175,-40,268,344,1015,-372,16046,0
4,1176,-30,244,68,1096,-386,16078,0
4,1177,62,-196,-220,1015,-423,16087,0
4,1178,70,-58,172,946,-352,16056,0
4,1179,-130,-126,218,864,-303,16139,0
4,1180,-334,82,-360,875,-390,16094,0
4,1181,-142,972,206,759,-338,16138,0
4,1182,-402,-922,460,813,-287,16184,0
4,1183,4,174,-394,855,-286,16162,0
4,1184,-76,-36,-336,933,-266,16054,0
4,1185,-254,220,690,954,-322,15984,0
4,1186,-164,198,-70,1016,-316,15992,0
4,1187,106,140,-186,1043,-408,16078,0
4,1188,-234,426,-118,983,-530,16203,0
4,1189,-280,-220,-232,933,-469,16249,0
4,1190,-154,-252,-936,920,-383,16150,0
4,1191,-186,-322,-428,979,-278,16083,0
4,1192,-344,-634,-140,1004,-356,15938,0
4,1193,4,-310,-14,982,-306,15887,0
4,1194,72,152,-266,923,-244,16044,0
4,1195,-120,-1062,276,856,-313,16030,0
4,1196,-266,36,864,929,-387,16039,0
4,1197,-186,152,-140,888,-353,16168,0
4,1198,150,-752,172,978,-285,16203,0
4,1199,140,268,310,961,-391,16146,0
4,1200,-6,-646,-2,978,-407,16203,0
4,1201,-32,104,-24,998,-415,16135,0
4,1202,-86,-750,-70,1007,-434,16014,0
4,1203,-188,-532,-82,1090,-366,15927,0
4,1204,-108,486,-174,1043,-252,15941,0
4,1205,48,230,598,1005,-216,15910,0
4,1206,62,82,-210,1033,-219,16039,0
4,1207,-76,254,-220,1022,-398,16169,0
4,1208,-324,-312,344,1011,-398,16192,0
4,1209,-220,-842,-220,903,-425,16257,0
4,1210,-74,-288,56,825,-418,16253,0
4,1211,62,-808,44,837,-506,16121,0
4,1212,48,-116,-210,902,-428,15966,0
4,1213,162,-160,44,977,-374,15959,0
4,1214,-186,498,10,965,-290,15946,0
4,1215,-76,-544,-394,887,-351,16099,0
4,1216,-164,-252,-474,956,-417,16200,0
4,1217,-18,-148,-186,952,-366,16160,0
4,1218,160,-520,460,1026,-265,16075,0
4,1219,-8,508,-370,1074,-220,16037,0
4,1220,82,-82,148,1081,-242,15985,0
4,1221,-40,-138,424,1075,-266,15953,0
4,1222,-40,-206,206,1058,-276,16047,0
4,1223,4,-818,-152,977,-248,16028,0
4,1224,376,24,228,947,-308,16151,0
4,1225,-52,406,482,893,-356,16164,0
4,1226,92,-232,-302,885,-366,16202,0
4,1227,-8,312,-866,909,-308,16139,0
4,1228,2,-798,-324,919,-307,16098,0
4,1229,38,-300,-164,911,-305,16055,0
4,1230,-244,-148,-82,885,-341,16052,0
4,1231,-8,-544,574,919,-382,16021,0
4,1232,-8,-556,-382,954,-392,16028,0
4,1233,92,104,172,953,-362,16056,0
4,1234,26,-116,378,958,-341,16077,0
4,1235,-76,208,160,986,-305,16125,0
4,1236,140,-518,-266,1017,-249,16061,0
4,1237,-210,210,126,990,-321,16076,0
4,1238,-62,-10,160,904,-338,16072,0
4,1239,-210,-738,-648,905,-346,16051,0
4,1240,-118,24,-24,887,-280,16122,0
4,1241,-98,-556,-70,918,-229,16104,0
4,1242,-164,70,-774,989,-261,16008,0
4,1243,84,-102,-290,949,-278,16055,0
4,1244,60,-116,-360,914,-252,16093,0
4,1245,-232,464,-198,897,-259,16046,0
4,1246,-280,-486,-118,905,-352,16062,0
4,1247,82,-786,44,985,-383,16054,0
4,1248,274,218,-2,959,-389,16045,0
4,1249,218,-518,632,901,-307,16165,0
4,1250,230,290,540,1008,-363,16039,0
4,1251,218,-460,-382,967,-342,16073,0
4,1252,-334,-750,-164,792,-325,16132,0
4,1253,-154,348,344,951,-326,16094,0
4,1254,-122,-174,298,1017,-341,16072,0
4,1255,-40,-184,-716,916,-281,16067,0
4,1256,250,10,-486,932,-218,16089,0
4,1257,-96,-10,332,928,-163,16101,0
4,1258,128,-56,-256,889,-277,16018,0
4,1259,-64,184,436,953,-248,15998,0
4,1260,62,660,506,954,-263,16008,0
4,1261,118,544,-152,925,-283,16087,0
4,1262,-6,290,390,867,-267,16113,0
4,1263,252,476,206,881,-256,16185,0
4,1264,340,450,-118,945,-320,16184,0
4,1265,-130,-368,-752,806,-296,16189,0
4,1266,172,58,-510,726,-318,16176,0
4,1267,206,-266,-370,731,-341,16084,0
4,1268,92,-278,-128,816,-225,16087,0
4,1269,-110,-36,68,826,-121,16076,0
4,1270,-266,-206,782,801,-150,16106,0
4,1271,-108,-496,298,945,-254,15987,0
4,1272,-268,-244,228,938,-211,16087,0
4,1273,14,392,482,836,-340,16131,0
4,1274,62,-126,-256,911,-343,16126,0
4,1275,18,-426,-152,932,-265,16172,0
4,1276,310,440,-936,950,-216,15978,0
4,1277,-62,106,-244,952,-208,15994,0
4,1278,-64,-820,-706,920,-211,15918,0
4,1279,-210,164,-24,895,-115,16003,0
4,1280,152,348,368,822,-119,16054,0
4,1281,-176,302,-106,795,-314,16068,0
4,1282,60,416,-2,736,-306,16173,0
4,1283,-54,34,-2,715,-236,16342,0
4,1284,-122,162,-2,761,-247,16248,0
4,1285,-178,-348,-566,857,-249,16084,0
4,1286,-86,152,22,819,-310,15950,0
4,1287,-120,-230,482,846,-284,16011,0
4,1288,-76,-532,-370,842,-326,16043,0
4,1289,-220,-426,-416,846,-420,16146,0
4,1290,-64,-12,-186,809,-376,16149,0
4,1291,172,-278,-428,810,-360,16160,0
4,1292,174,-44,-406,902,-318,16150,0
4,1293,-110,80,194,904,-160,16057,0
4,1294,-8,-82,310,890,-110,16036,0
4,1295,-310,-102,32,878,-102,15959,0
4,1296,-176,-160,678,808,-131,16027,0
4,1297,-144,-278,-94,827,-232,16059,0
4,1298,-64,-302,-24,820,-326,16143,0
4,1299,-86,70,114,774,-383,16201,0
5,1300,82,-82,-462,78,-270,15908,0
5,1301,-220,684,-48,89,-325,16042,0
5,1302,-20,-150,-152,-5,-338,15974,0
5,1303,-62,-196,-762,-104,-290,16161,0
5,1304,-178,-186,-694,-200,-252,16205,0
5,1305,-178,-914,368,29,-125,16222,0
5,1306,-164,-322,-752,149,-135,16059,0
5,1307,4,-218,172,210,-196,16081,0
5,1308,48,58,448,219,-124,16197,0
5,1309,-30,-426,-14,256,-156,16165,0
5,1310,-76,-174,90,397,-255,16114,0
5,1311,-220,-22,390,391,-323,16128,0
5,1312,138,114,-232,304,-358,16089,0
5,1313,82,-462,-2,245,-269,16043,0
5,1314,104,-370,632,258,-184,15959,0
5,1315,48,-232,368,126,-162,16044,0
5,1316,-110,-556,-198,168,-63,16032,0
5,1317,-222,-302,252,141,-53,16172,0
5,1318,-176,-322,-36,67,-127,16326,0
5,1319,36,-1190,-590,117,-214,16260,0
5,1320,160,-336,-336,112,-280,16163,0
5,1321,-358,-1076,-70,-67,-129,16105,0
5,1322,126,-312,-348,251,-226,15873,0
5,1323,-42,-532,-452,219,-290,15929,0
5,1324,118,-970,172,208,-296,16041,0
5,1325,-186,36,-370,225,-312,16189,0
5,1326,-154,-414,44,99,-418,16208,0
5,1327,-176,-310,598,106,-425,16232,0
5,1328,-74,-600,-290,170,-367,16138,0
5,1329,-154,-346,-94,174,-245,16083,0
5,1330,4,-506,552,67,-175,16124,0
5,1331,50,-22,-210,78,-70,16130,0
5,1332,-218,-252,-128,151,-5,16084,0
5,1333,28,-160,356,7,-18,16135,0
5,1334,-248,404,472,-16,-113,16292,0
5,1335,-448,-1330,182,-2,-111,16339,0
5,1336,-378,-1096,540,235,-317,16203,0
5,1337,-164,-830,-36,497,-416,16018,0
5,1338,-30,-414,-820,329,-409,15959,0
5,1339,-132,508,-382,429,-327,15930,0
5,1340,-222,-612,90,465,-383,16098,0
5,1341,-130,-114,-566,324,-363,16126,0
5,1342,-96,2,-336,341,-379,16150,0
5,1343,216,-254,506,371,-353,16087,0
5,1344,242,220,-360,368,-319,16091,0
5,1345,-142,-172,264,233,-251,16071,0
5,1346,-268,380,356,-2,-190,16100,0
5,1347,-200,-394,56,91,-118,16283,0
5,1348,-200,-128,-94,66,-123,16119,0
5,1349,38,-22,68,195,-193,16196,0
5,1350,-302,-520,-416,306,-252,16103,0
5,1351,-62,-980,-370,338,-244,16028,0
5,1352,-64,-452,-14,378,-247,16007,0
5,1353,-110,-24,90,312,-321,16086,0
5,1354,-164,232,-118,361,-306,16159,0
5,1355,-110,600,-612,348,-404,16175,0
5,1356,162,290,182,220,-397,16134,0
5,1357,62,36,32,204,-355,16093,0
5,1358,38,198,-14,67,-321,16065,0
5,1359,-98,254,414,65,-258,16082,0
5,1360,-76,-128,402,-1,-203,16137,0
5,1361,-166,-416,-452,87,-206,16140,0
5,1362,-62,-68,356,206,-193,16090,0
5,1363,-164,-392,506,246,-290,16082,0
5,1364,-76,114,-48,281,-238,16114,0
5,1365,-40,82,-128,236,-241,16142,0
5,1366,-88,334,564,151,-308,16105,0
5,1367,186,-472,56,202,-231,16175,0
5,1368,50,-114,-486,92,-221,16145,0
5,1369,-110,-394,148,167,-311,16069,0
5,1370,162,972,402,194,-332,16086,0
5,1371,14,-336,-498,244,-303,16033,0
5,1372,60,104,-244,213,-254,16081,0
5,1373,-188,-428,-140,216,-233,16132,0
5,1374,-164,476,-566,230,-248,16186,0
5,1375,106,-242,-624,218,-288,16200,0
5,1376,-232,360,310,163,-322,16098,0
5,1377,-210,12,424,51,-317,16090,0
5,1378,-30,-438,378,-13,-280,16070,0
5,1379,-234,-94,-164,-34,-239,16122,0
5,1380,-254,-92,32,-67,-230,16094,0
5,1381,-344,-1026,-566,54,-292,16062,0
5,1382,-130,-460,-440,175,-224,16163,0
5,1383,-322,-438,-382,312,-293,16109,0
5,1384,242,-218,-394,271,-315,16107,0
5,1385,-246,46,32,326,-322,16101,0
5,1386,-300,-946,240,360,-203,16150,0
5,1387,-220,-160,-406,217,-334,16164,0
5,1388,-42,-856,390,164,-308,16089,0
5,1389,-20,-544,182,176,-230,16084,0
5,1390,104,380,-244,177,-192,15974,0
5,1391,-220,-346,-278,182,-118,16015,0
5,1392,-156,-198,528,85,-104,16126,0
5,1393,-166,-290,56,70,-234,16186,0
5,1394,50,-368,22,185,-435,16264,0
5,1395,48,716,-152,279,-516,16203,0
5,1396,218,-322,-486,276,-530,16156,0
5,1397,152,48,-648,273,-316,16032,0
5,1398,264,-322,-544,144,-94,16019,0
5,1399,-54,-1006,482,26,-95,16057,0
5,1400,-8,416,564,40,-178,16043,0
5,1401,-86,-542,114,53,-249,16104,0
5,1402,-94,-68,136,116,-234,16144,0
5,1403,-62,-242,194,103,-271,16181,0
5,1404,26,-394,356,165,-294,16149,0
5,1405,140,232,-60,203,-386,16130,0
5,1406,-142,-564,-636,207,-392,16103,0
5,1407,-222,-578,-808,300,-318,16093,0
5,1408,-198,-34,-336,288,-190,16072,0
5,1409,-234,104,598,244,-128,16168,0
5,1410,-322,302,-164,162,-228,16144,0
5,1411,-40,-392,414,185,-421,16085,0
5,1412,-110,-174,402,183,-501,16042,0
5,1413,-30,94,-382,187,-468,16012,0
5,1414,194,-266,-266,182,-327,16002,0
5,1415,218,-426,78,0,-228,16121,0
5,1416,-20,-716,-360,-16,-117,16158,0
5,1417,-468,-438,-164,75,-52,16231,0
5,1418,-280,58,-232,140,-210,16273,0
5,1419,-222,-856,472,147,-381,16268,0
5,1420,128,-472,-612,169,-480,16153,0
5,1421,-198,-380,-82,271,-388,15994,0
5,1422,26,-1110,148,335,-312,15876,0
5,1423,388,-346,-140,269,-274,15944,0
5,1424,92,-416,344,311,-166,16099,0
5,1425,-20,-590,494,344,-96,16130,0
5,1426,-132,-266,68,343,3,16191,0
5,1427,-356,-680,-152,403,-57,16208,0
5,1428,-200,-358,-416,444,0,16156,0
5,1429,-188,-670,32,358,-103,16132,0
5,1430,-426,-508,-416,423,-234,16159,0
5,1431,186,-172,56,390,-502,16140,0
5,1432,284,-474,56,297,-455,16137,0
5,1433,298,-530,-740,270,-382,15908,0
5,1434,-256,-1132,102,328,-296,15898,0
5,1435,-62,-784,206,370,-230,15991,0
5,1436,26,104,194,511,-138,16146,0
5,1437,-222,-116,-244,519,-224,16286,0
5,1438,36,646,264,428,-325,16241,0
5,1439,-110,-232,-220,283,-543,16215,0
5,1440,128,-172,-728,193,-586,16024,0
5,1441,250,566,-636,208,-529,15916,0
5,1442,-28,-750,298,178,-383,15936,0
5,1443,-312,-382,-186,246,-314,16064,0
5,1444,-62,-68,-24,270,-276,16255,0
5,1445,-200,-208,-24,292,-159,16263,0
5,1446,-8,-474,172,242,-209,16209,0
5,1447,-166,-844,-232,353,-358,16224,0
5,1448,106,-264,-152,530,-478,16071,0
5,1449,-54,-590,322,527,-511,16083,0
5,1450,-86,12,-1016,516,-370,16189,0
5,1451,-6,868,-566,458,-245,16179,0
5,1452,-212,-358,668,378,-224,16229,0
5,1453,-40,590,-174,346,-212,16132,0
5,1454,-54,-856,10,328,-257,15925,0
5,1455,-32,774,160,459,-192,15887,0
5,1456,-324,208,68,497,-236,16018,0
5,1457,4,244,-912,531,-270,16177,0
5,1458,422,464,-302,468,-337,16324,0
5,1459,442,-462,-186,356,-216,16281,0
5,1460,-142,-310,-878,313,-165,16099,0
5,1461,498,-878,-256,271,-273,15932,0
5,1462,70,-162,276,350,-291,15869,0
5,1463,14,-566,-474,443,-368,15872,0
5,1464,70,-266,-394,600,-367,16031,0
5,1465,104,-336,-706,599,-203,16099,0
5,1466,82,-12,-14,540,19,16355,0
5,1467,-6,360,-798,512,86,16361,0
5,1468,-52,12,-24,349,-40,16393,0
5,1469,-98,276,182,345,-121,16175,0
5,1470,82,68,44,330,-335,15985,0
5,1471,-30,-114,-94,283,-524,15917,0
5,1472,38,-506,-24,268,-526,15850,0
5,1473,230,12,-302,226,-386,15881,0
5,1474,250,-878,-440,405,-151,15965,0
5,1475,-8,-382,68,372,-51,16121,0
5,1476,82,530,194,317,-93,16338,0
5,1477,-142,-600,-462,360,-106,16340,0
5,1478,116,-266,-232,297,-276,16337,0
5,1479,-8,-244,344,193,-287,16110,0
5,1480,72,128,-174,240,-253,15908,0
5,1481,206,-370,78,276,-182,15857,0
5,1482,196,-138,332,303,-172,15931,0
5,1483,296,-140,102,409,-113,15991,0
5,1484,-54,-266,228,373,-107,16192,0
5,1485,48,682,-36,349,-107,16324,0
5,1486,36,380,-36,419,-186,16388,0
5,1487,-110,-404,-82,225,-219,16184,0
5,1488,216,322,-186,260,-198,16040,0
5,1489,534,-564,-324,340,-119,15959,0
5,1490,2,-128,22,381,-53,15847,0
5,1491,38,-276,-474,342,-21,16091,0
5,1492,150,126,-220,276,-38,16264,0
5,1493,26,670,22,219,-61,16359,0
5,1494,-40,-438,-682,177,-192,16283,0
5,1495,-108,-426,-670,302,-216,16081,0
5,1496,-122,-116,-174,434,-197,15907,0
5,1497,50,-22,-624,528,-127,15910,0
5,1498,228,276,-82,555,9,16052,0
5,1499,264,-518,182,540,80,16184,0
5,1500,-96,590,310,497,57,16301,0
5,1501,-154,-334,276,422,-42,16315,0
5,1502,-86,694,22,309,-124,16335,0
5,1503,-132,-520,-348,289,-231,16102,0
5,1504,-88,-498,-474,273,-228,15952,0
5,1505,-18,348,-1166,257,-246,15916,0
5,1506,172,-116,-336,382,-239,15967,0
5,1507,4,418,-440,399,-259,16067,0
5,1508,264,440,-70,391,-137,16157,0
5,1509,-52,-22,448,357,-43,16326,0
5,1510,104,-348,56,173,-98,16293,0
5,1511,-62,-1246,448,40,-160,16170,0
5,1512,16,-668,114,-49,-200,16108,0
5,1513,116,-856,-14,64,-198,16089,0
5,1514,4,-2010,102,306,-227,16013,0
5,1515,92,-36,-198,530,-221,15963,0
5,1516,194,-810,206,699,-123,16099,0
5,1517,94,-426,126,689,-86,16169,0
5,1518,116,-104,482,669,20,16244,0
5,1519,2,-624,378,634,20,16211,0
5,1520,172,-312,322,556,-53,16125,0
5,1521,-74,-634,460,530,-99,16097,0
5,1522,38,220,-94,485,-87,16056,0
5,1523,-42,-382,-2,415,-93,16073,0
5,1524,184,-24,252,355,-133,16096,0
5,1525,14,704,344,363,-161,16098,0
5,1526,420,0,228,321,-139,16048,0
5,1527,84,-138,-302,325,-96,16064,0
5,1528,-280,-486,-70,392,-22,15973,0
5,1529,104,-302,-14,504,-30,16075,0
5,1530,-176,-426,-36,542,-11,16110,0
5,1531,72,-576,78,642,-17,16138,0
5,1532,352,404,-636,589,-29,16138,0
5,1533,60,-58,-360,570,-42,16227,0
5,1534,388,-92,-232,472,-56,16168,0
5,1535,216,-474,-2,279,54,16203,0
5,1536,-132,-70,126,326,152,15955,0
5,1537,-98,150,78,422,96,16000,0
5,1538,-402,256,78,406,-79,16027,0
5,1539,-42,92,448,513,-122,16130,0
5,1540,60,-46,-210,583,-139,16241,0
5,1541,-76,-544,-336,484,-138,16215,0
5,1542,-76,92,114,435,-130,16115,0
5,1543,-132,-46,160,404,-59,15977,0
5,1544,-334,-334,-532,386,-56,15918,0
5,1545,-88,-290,-48,493,-47,16039,0
5,1546,-76,-290,10,477,-62,16151,0
5,1547,-166,172,-152,395,-64,16219,0
5,1548,170,-58,78,448,-99,16311,0
5,1549,-32,-128,-36,433,-94,16218,0
5,1550,-178,-70,-186,385,-16,16151,0
5,1551,60,-416,-118,286,9,16046,0
5,1552,-32,-578,378,247,-9,15973,0
5,1553,-42,-752,114,303,41,15979,0
5,1554,-288,-402,-198,373,94,15953,0
5,1555,-220,418,714,432,41,15995,0
5,1556,-42,-370,424,443,-55,16183,0
5,1557,-178,-394,-682,381,-114,16262,0
5,1558,84,428,-510,503,-140,16246,0
5,1559,-40,-196,-394,524,-97,16119,0
6,1560,-256,-94,56,45,-56,16223,0
6,1561,-62,-10,-314,28,-121,16192,0
6,1562,14,-832,68,-58,-253,16182,0
6,1563,140,-854,-556,60,-162,16167,0
6,1564,-88,-198,22,58,-104,16094,0
6,1565,262,-982,44,63,-108,16065,0
6,1566,14,-590,-14,177,-66,16083,0
6,1567,-254,-460,-382,217,-57,16093,0
6,1568,-178,-24,322,326,-65,16118,0
6,1569,-188,-140,540,382,-10,16159,0
6,1570,-482,-752,610,336,-36,16165,0
6,1571,-220,-218,816,355,-180,16160,0
6,1572,-98,0,-82,287,-161,16168,0
6,1573,-22,-960,90,214,-190,16113,0
6,1574,160,624,402,180,-155,16072,0
6,1575,-86,106,-406,135,-80,16145,0
6,1576,-290,-428,-832,-2,-94,16138,0
6,1577,-190,196,-382,-19,-118,16158,0
6,1578,184,58,10,-19,-141,16110,0
6,1579,36,-740,-958,-36,-44,16170,0
6,1580,92,-404,-256,68,33,16106,0
6,1581,-76,-936,-440,158,-12,16047,0
6,1582,50,-622,-602,260,-16,15976,0
6,1583,26,-602,-510,269,-56,16098,0
6,1584,-246,-128,-14,270,-106,16111,0
6,1585,-200,-348,-232,249,-52,16107,0
6,1586,-110,334,-266,263,-146,16112,0
6,1587,-64,218,424,286,-242,16149,0
6,1588,4,336,126,314,-314,16096,0
6,1589,-54,-312,-82,159,-227,16153,0
6,1590,140,-160,-232,95,-61,16149,0
6,1591,84,-114,160,-2,56,16114,0
6,1592,48,-508,-266,98,17,16190,0
6,1593,-142,-218,-612,187,-91,16124,0
6,1594,-62,-56,182,220,-102,16068,0
6,1595,-110,-244,-590,183,-188,16111,0
6,1596,140,116,78,131,-153,16130,0
6,1597,-64,-706,160,131,-76,16131,0
6,1598,70,-348,-336,75,-45,16046,0
6,1599,274,566,-2,149,-53,16144,0
6,1600,-42,-602,828,102,44,16131,0
6,1601,-74,36,414,147,38,16082,0
6,1602,-256,68,78,202,-21,16127,0
6,1603,-212,530,126,313,-129,16104,0
6,1604,186,210,-140,328,-139,16140,0
6,1605,140,-242,160,286,-150,16178,0
6,1606,116,150,-210,146,-166,16121,0
6,1607,-88,58,-106,123,-27,16021,0
6,1608,-64,-452,218,62,-34,16006,0
6,1609,-224,-70,136,44,-70,15980,0
6,1610,-268,-856,-140,172,-56,15981,0
6,1611,-322,186,-762,246,-26,16026,0
6,1612,-164,-472,-336,271,-158,16078,0
6,1613,-42,-70,44,197,-239,16148,0
6,1614,150,578,-256,182,-180,16221,0
6,1615,-130,-184,-462,106,-145,16190,0
6,1616,-86,24,-670,-26,-51,16097,0
6,1617,218,106,-266,-12,56,16060,0
6,1618,-526,-726,-602,5,54,16005,0
6,1619,-730,-394,-220,156,22,16026,0
6,1620,106,302,-118,245,-212,16098,0
6,1621,-156,172,102,199,-278,16192,0
6,1622,-156,-278,-648,278,-205,16148,0
6,1623,-64,-266,-602,294,-181,16135,0
6,1624,-42,-370,-544,245,-168,16179,0
6,1625,-130,-888,-902,250,-45,16041,0
6,1626,118,-368,-106,304,-30,16053,0
6,1627,126,-358,-94,251,-155,16042,0
6,1628,-144,58,-164,250,-141,16104,0
6,1629,-42,-556,-416,191,-151,16163,0
6,1630,186,186,44,116,-86,16231,0
6,1631,172,-266,-302,98,-96,16133,0
6,1632,-334,-646,-1258,97,-24,16058,0
6,1633,-200,-208,-186,169,-36,16079,0
6,1634,-18,-1096,390,270,-100,16087,0
6,1635,-402,752,-140,342,-65,16074,0
6,1636,-268,22,-302,332,-62,16089,0
6,1637,-74,-414,378,251,-42,16133,0
6,1638,-188,-162,136,282,-61,16141,0
6,1639,-120,-34,-636,235,-86,16203,0
6,1640,320,-426,-94,217,-138,16086,0
6,1641,72,-322,-128,286,-90,16158,0
6,1642,60,-394,-958,212,-119,16110,0
6,1643,318,68,-14,124,-154,16136,0
6,1644,26,-624,782,113,-57,16057,0
6,1645,-188,-140,-48,195,-99,16037,0
6,1646,-120,-1304,-24,162,-64,16031,0
6,1647,-302,-890,828,215,-144,16072,0
6,1648,-186,-970,90,336,-276,16085,0
6,1649,-368,-1050,-694,388,-375,16219,0
6,1650,14,-290,-324,427,-303,16349,0
6,1651,194,-232,-60,437,-302,16241,0
6,1652,228,-404,-970,234,-195,16192,0
6,1653,-156,-348,-164,203,-163,16086,0
6,1654,-186,-692,90,239,-147,15957,0
6,1655,-88,-832,-360,262,-116,15955,0
6,1656,-404,-612,-578,330,-167,16021,0
6,1657,-504,-462,-602,315,-182,16129,0
6,1658,-108,-92,-728,242,-235,16190,0
6,1659,-42,-116,-670,307,-282,16297,0
6,1660,-42,-220,-844,250,-273,16231,0
6,1661,-210,-866,-106,269,-259,16126,0
6,1662,60,-128,32,297,-214,16173,0
6,1663,-232,-576,-118,309,-179,16061,0
6,1664,138,-278,-694,304,-147,15983,0
6,1665,-336,-520,-232,353,-122,16004,0
6,1666,-426,-740,-936,457,-94,16044,0
6,1667,-448,-278,-462,523,-140,16070,0
6,1668,-122,-578,-232,608,-199,16229,0
6,1669,-86,-172,-210,476,-246,16191,0
6,1670,152,-310,228,344,-207,16170,0
6,1671,-370,-856,332,313,-101,16077,0
6,1672,48,-46,-256,259,-94,16063,0
6,1673,-290,-820,-198,217,-25,16119,0
6,1674,-268,-24,632,347,-177,16071,0
6,1675,-406,-868,-336,366,-296,16066,0
6,1676,48,-936,-302,432,-374,16152,0
6,1677,138,-232,402,535,-416,16113,0
6,1678,-42,-648,44,515,-362,16128,0
6,1679,-278,602,-48,516,-241,16054,0
6,1680,-176,-126,610,474,-202,16026,0
6,1681,-108,-484,794,417,-209,16061,0
6,1682,-132,-878,194,370,-115,16057,0
6,1683,-256,-544,-152,395,-144,16087,0
6,1684,-166,380,460,407,-187,16060,0
6,1685,26,-58,390,464,-260,16142,0
6,1686,160,-70,-612,514,-284,16166,0
6,1687,218,-264,-360,454,-256,16195,0
6,1688,26,-186,-220,440,-216,16090,0
6,1689,-254,406,-348,432,-200,16025,0
6,1690,-54,46,-244,383,-122,16003,0
6,1691,-122,-486,-220,423,-94,16046,0
6,1692,-32,-82,206,393,-124,16115,0
6,1693,16,-206,564,429,-241,16232,0
6,1694,-156,104,240,510,-329,16212,0
6,1695,454,162,10,615,-473,16179,0
6,1696,-122,0,-532,475,-445,16161,0
6,1697,36,-266,-302,450,-385,16115,0
6,1698,-110,22,286,344,-272,16029,0
6,1699,208,-346,-106,301,-261,16092,0
6,1700,-188,-82,32,326,-243,16089,0
6,1701,172,-462,506,420,-237,16097,0
6,1702,298,60,-174,464,-270,16127,0
6,1703,274,-532,-786,452,-224,16156,0
6,1704,158,-58,102,499,-173,16138,0
6,1705,274,242,-14,554,-131,16141,0
6,1706,466,-1050,-370,506,-124,16087,0
6,1707,330,288,-48,532,-165,16046,0
6,1708,262,218,160,551,-148,16006,0
6,1709,262,196,-70,530,-172,16050,0
6,1710,242,278,286,553,-218,16196,0
6,1711,262,-452,460,443,-242,16276,0
6,1712,398,450,228,408,-67,16253,0
6,1713,104,-624,286,458,-83,16140,0
6,1714,476,530,102,428,-61,16080,0
6,1715,162,268,218,417,-87,16144,0
6,1716,82,-104,-48,472,-130,16102,0
6,1717,432,162,-394,402,-206,16116,0
6,1718,228,184,-24,341,-136,16091,0
6,1719,250,-416,-266,319,-93,16112,0
6,1720,510,-602,668,325,-85,16015,0
6,1721,262,-578,44,345,-77,16052,0
6,1722,116,-428,436,409,-73,16081,0
6,1723,138,-244,-70,356,18,16145,0
6,1724,104,126,298,377,-10,16091,0
6,1725,228,-266,206,432,-31,16099,0
6,1726,62,-622,-728,407,-101,16081,0
6,1727,558,-56,-394,387,-59,16058,0
6,1728,364,-150,-210,279,-1,16083,0
6,1729,184,426,44,320,73,16096,0
6,1730,116,254,332,313,153,16021,0
6,1731,150,0,114,373,176,16056,0
6,1732,206,-440,298,436,116,16101,0
6,1733,340,184,-612,498,129,16172,0
6,1734,70,-36,-774,437,113,16233,0
6,1735,330,612,424,374,68,16231,0
6,1736,566,184,68,316,37,16167,0
6,1737,496,266,-70,404,105,16086,0
6,1738,240,474,136,316,113,16006,0
6,1739,60,68,-60,340,127,16090,0
6,1740,210,-288,-510,256,62,16077,0
6,1741,194,68,-60,222,52,16128,0
6,1742,340,-532,494,212,93,16054,0
6,1743,-76,-220,-244,242,187,16109,0
6,1744,38,-680,78,311,349,16094,0
6,1745,-130,-264,368,370,300,16188,0
6,1746,-258,68,-486,405,257,16259,0
6,1747,-164,-554,-370,390,235,16219,0
6,1748,-200,-12,-578,482,255,16101,0
6,1749,118,-184,-266,446,205,16053,0
6,1750,194,46,90,458,181,16088,0
6,1751,138,-520,-648,261,120,16002,0
6,1752,-18,2,90,311,63,16061,0
6,1753,-54,58,-164,415,153,16092,0
6,1754,184,554,-740,464,76,16104,0
6,1755,284,438,-590,488,43,16216,0
6,1756,174,220,-498,371,-23,16335,0
6,1757,92,242,-394,204,43,16251,0
6,1758,318,358,-440,109,90,16048,0
6,1759,138,-590,436,7,119,16000,0
6,1760,2,-716,-232,165,99,15868,0
6,1761,-144,-878,-186,322,197,15890,0
6,1762,-76,322,344,488,97,16079,0
6,1763,-98,-878,136,443,28,16304,0
6,1764,62,-818,-566,188,61,16440,0
6,1765,150,-1190,586,139,135,16262,0
6,1766,-32,22,944,222,272,16073,0
6,1767,126,-36,322,342,301,15926,0
6,1768,-246,-670,78,423,285,15877,0
6,1769,28,568,424,490,208,16032,0
6,1770,-142,-346,540,400,138,16173,0
6,1771,104,474,228,441,162,16286,0
6,1772,-74,-252,136,501,185,16177,0
6,1773,250,-810,402,537,336,16150,0
6,1774,-254,-680,148,582,308,16015,0
6,1775,-380,46,-82,641,288,15945,0
6,1776,48,-302,-24,536,159,15910,0
6,1777,126,-232,-24,568,222,15966,0
6,1778,240,22,-844,565,151,16046,0
6,1779,-166,-290,-982,588,84,16152,0
6,1780,-166,184,78,615,97,16261,0
6,1781,160,-508,-1062,475,143,16316,0
6,1782,276,-80,-798,261,203,16200,0
6,1783,0,184,-762,179,243,16049,0
6,1784,104,-104,-60,182,139,15902,0
6,1785,-302,46,-948,309,88,15895,0
6,1786,82,-162,-302,333,49,15858,0
6,1787,-156,-740,-94,568,158,16008,0
6,1788,-178,-220,-578,588,172,16128,0
6,1789,-30,-242,-210,581,170,16281,0
6,1790,216,-290,-36,576,132,16325,0
6,1791,128,220,-256,491,129,16238,0
6,1792,556,-624,-486,363,71,16197,0
6,1793,2,-498,264,272,47,16063,0
6,1794,332,2,-336,264,160,15942,0
6,1795,-10,-1182,-396,335,195,15891,0
6,1796,14,-648,-370,514,223,16017,0
6,1797,-180,-36,44,532,256,16186,0
6,1798,150,-1064,-670,547,245,16333,0
6,1799,94,-1142,-82,574,219,16306,0
6,1800,-178,-1076,90,575,193,16257,0
6,1801,172,-682,-706,623,129,16160,0
6,1802,320,-842,-186,723,114,16042,0
6,1803,276,-658,148,796,134,16032,0
6,1804,-88,-36,-348,726,86,16030,0
6,1805,172,-1132,-774,715,43,16056,0
6,1806,106,82,-152,662,118,16065,0
6,1807,-88,-324,-440,659,169,15984,0
6,1808,242,-460,-728,692,144,15946,0
6,1809,398,-358,-902,788,322,16065,0
6,1810,308,-716,-544,652,411,16105,0
6,1811,14,-532,-1052,693,496,16136,0
6,1812,-110,-520,-486,793,590,16043,0
6,1813,-188,-324,102,805,550,16097,0
6,1814,-210,-750,-912,865,348,16199,0
6,1815,50,-196,-832,853,283,16220,0
6,1816,-30,-484,44,780,240,16166,0
6,1817,-188,-208,-118,751,293,16130,0
6,1818,-10,-302,-186,825,183,15925,0
6,1819,-404,-786,-186,850,186,15951,0
7,1820,92,1352,228,708,-494,16158,0
7,1821,-212,1108,-60,631,-246,16111,0
7,1822,-8,1570,1140,940,-319,15835,0
7,1823,126,3120,1394,1160,-722,15879,0
7,1824,814,3616,978,1015,-1069,16185,0
7,1825,984,3130,528,715,-1171,16543,0
7,1826,680,2322,90,82,-750,16408,0
7,1827,16,1204,332,-57,-388,16177,0
7,1828,-438,1236,378,-37,-260,15787,0
7,1829,-898,-356,494,109,-459,15751,0
7,1830,-480,140,782,158,-797,15783,0
7,1831,-166,646,172,325,-730,15773,0
7,1832,-232,348,-24,181,-664,16009,0
7,1833,-626,1400,-60,75,-417,16190,0
7,1834,-990,-324,-256,69,-462,16232,0
7,1835,-1226,-452,-164,87,-711,16193,0
7,1836,-1012,-786,-14,76,-994,16234,0
7,1837,-494,-566,228,129,-1104,16309,0
7,1838,138,-416,240,101,-1076,16287,0
7,1839,274,-740,264,106,-845,16121,0
7,1840,60,138,-232,84,-696,15991,0
7,1841,-20,172,-70,165,-567,15867,0
7,1842,-628,-394,-440,375,-735,15900,0
7,1843,-854,218,-624,378,-775,16112,0
7,1844,-334,-160,252,356,-1037,16113,0
7,1845,-324,-544,-266,499,-1055,16055,0
7,1846,330,208,-994,124,-1083,16180,0
7,1847,602,372,-382,121,-844,16260,0
7,1848,296,172,-128,175,-733,16175,0
7,1849,-20,300,-452,123,-752,16165,0
7,1850,-322,198,172,35,-795,16151,0
7,1851,-266,244,378,74,-908,16004,0
7,1852,-248,-682,-14,111,-1012,15926,0
7,1853,-268,300,-106,146,-790,15950,0
7,1854,-8,438,540,180,-681,16004,0
7,1855,48,1570,-24,183,-750,16256,0
7,1856,206,762,-94,244,-886,16389,0
7,1857,274,578,-382,188,-897,16282,0
7,1858,296,58,78,7,-828,16087,0
7,1859,228,530,-2,-217,-658,15993,0
7,1860,-110,-116,44,-287,-515,15839,0
7,1861,-132,150,240,-206,-651,15821,0
7,1862,92,-150,-70,-127,-773,15995,0
7,1863,250,-728,-970,-21,-927,16142,0
7,1864,-44,-174,-578,-30,-824,16121,0
7,1865,-76,-290,136,-124,-729,16077,0
7,1866,-42,-128,240,-145,-584,16223,0
7,1867,-132,-416,10,-122,-693,16222,0
7,1868,216,334,-406,73,-1006,16188,0
7,1869,242,-300,1082,250,-928,16350,0
7,1870,148,266,182,222,-1084,16354,0
7,1871,398,208,-2,167,-1094,16157,0
7,1872,950,728,-210,21,-1014,16092,0
7,1873,702,92,-416,-204,-628,16124,0
7,1874,184,-370,-948,-375,-447,15991,0
7,1875,-108,-530,598,-377,-246,15836,0
7,1876,-122,-244,816,-282,-383,15757,0
7,1877,-8,-278,506,-150,-540,15830,0
7,1878,2,-174,828,-27,-727,16136,0
7,1879,398,496,518,25,-672,16384,0
7,1880,632,-520,806,-171,-595,16477,0
7,1881,-86,-588,68,-93,-519,16239,0
7,1882,-166,-474,276,26,-588,16017,0
7,1883,-76,-578,898,-62,-770,15917,0
7,1884,398,-104,494,42,-838,15900,0
7,1885,454,-394,32,108,-848,15942,0
7,1886,714,568,678,-44,-723,16148,0
7,1887,126,-602,402,-46,-507,16225,0
7,1888,-302,-544,-520,-145,-352,15985,0
7,1889,-494,-508,436,-114,-332,15914,0
7,1890,-312,-578,552,-98,-462,16030,0
7,1891,-112,10,-36,-31,-691,16144,0
7,1892,250,34,136,204,-882,16206,0
7,1893,558,360,-682,223,-1085,16158,0
7,1894,386,-682,-486,105,-1014,16155,0
7,1895,160,-266,-670,-167,-694,16088,0
7,1896,26,138,-232,-197,-551,15924,0
7,1897,-336,-208,194,-106,-575,15870,0
7,1898,-108,-126,22,-131,-599,15894,0
7,1899,-448,-878,-128,-45,-599,16100,0
7,1900,-54,542,-520,-94,-512,16235,0
7,1901,-278,-876,148,-147,-458,16278,0
7,1902,-482,-844,-948,-186,-446,16237,0
7,1903,-482,-810,436,-117,-528,16132,0
7,1904,-222,-1052,506,79,-797,16101,0
7,1905,-222,-290,-48,206,-931,16226,0
7,1906,-180,-254,-314,161,-801,16211,0
7,1907,2,-302,-740,226,-607,16186,0
7,1908,184,-394,-348,192,-645,16181,0
7,1909,340,554,-324,33,-539,16143,0
7,1910,-54,92,-360,62,-605,15987,0
7,1911,522,530,-140,-26,-674,15992,0
7,1912,284,-174,-670,-34,-607,16123,0
7,1913,104,-566,-648,-82,-620,16119,0
7,1914,162,140,-174,-106,-629,16134,0
7,1915,70,-266,-486,-110,-615,16107,0
7,1916,318,416,-118,-135,-625,15997,0
7,1917,128,-114,-140,-127,-616,15953,0
7,1918,262,-12,32,-228,-571,16055,0
7,1919,418,208,136,-191,-395,16207,0
7,1920,-178,126,-302,-180,-360,16174,0
7,1921,28,-402,-48,53,-491,16070,0
7,1922,70,-404,68,66,-680,16130,0
7,1923,-64,-24,-324,154,-732,16076,0
7,1924,276,-310,-670,64,-697,16192,0
7,1925,510,578,22,0,-651,16240,0
7,1926,578,-566,-210,-112,-585,16321,0
7,1927,420,-220,-856,-416,-535,16241,0
7,1928,308,-694,102,-57,-139,16087,0
7,1929,-76,-394,564,-160,-277,15830,0
7,1930,-198,-10,114,-97,-339,15803,0
7,1931,-404,-302,-48,-31,-448,15978,0
7,1932,-76,-150,-486,-10,-564,16204,0
7,1933,386,566,-48,-109,-534,16326,0
7,1934,-244,-22,-24,-115,-398,16252,0
7,1935,-290,-890,240,9,-556,16115,0
7,1936,82,46,736,115,-537,16048,0
7,1937,-154,-218,206,70,-511,15964,0
7,1938,-314,-740,-670,140,-480,15956,0
7,1939,-336,-116,-140,147,-457,16045,0
7,1940,-426,-198,-336,58,-500,16211,0
7,1941,-380,-278,10,58,-512,16234,0
7,1942,-112,-302,286,101,-569,16242,0
7,1943,36,-94,32,-64,-565,16265,0
7,1944,184,172,68,-150,-505,16256,0
7,1945,308,80,-798,-64,-611,16208,0
7,1946,440,68,-370,-108,-724,16195,0
7,1947,170,-128,344,21,-693,16024,0
7,1948,318,114,-278,64,-616,15957,0
7,1949,-212,-462,-244,50,-413,15903,0
7,1950,-290,266,240,-4,-297,15958,0
7,1951,-98,300,-498,-78,-258,16075,0
7,1952,-42,-394,-498,-140,-359,16235,0
7,1953,160,-394,322,-78,-461,16231,0
7,1954,250,-150,448,112,-602,16148,0
7,1955,386,-266,206,114,-627,16138,0
7,1956,124,-868,-60,83,-525,16117,0
7,1957,-178,404,102,-16,-385,15987,0
7,1958,-660,-1246,402,58,-328,15853,0
7,1959,-346,-116,-314,-8,-338,15905,0
7,1960,-370,-624,56,2,-383,16041,0
7,1961,-460,-254,344,151,-450,16186,0
7,1962,-156,300,-244,251,-525,16362,0
7,1963,-156,-58,-520,234,-639,16398,0
7,1964,488,46,-474,265,-694,16244,0
7,1965,454,-46,-706,169,-541,16161,0
7,1966,116,-370,-636,-15,-270,15978,0
7,1967,104,-12,276,8,-271,15897,0
7,1968,-268,358,-24,106,-421,16012,0
7,1969,250,634,-60,115,-521,16166,0
7,1970,116,-440,-636,134,-512,16129,0
7,1971,-336,-324,-660,182,-489,15965,0
7,1972,-76,-820,-118,167,-466,15890,0
7,1973,-234,-498,-752,167,-588,15934,0
7,1974,-144,-1122,-532,207,-614,16059,0
7,1975,-358,-856,724,137,-586,16134,0
7,1976,-344,-172,136,99,-458,16208,0
7,1977,-864,-784,-694,133,-255,16287,0
7,1978,-516,-370,-82,155,-510,16286,0
7,1979,-212,-452,-382,245,-612,16278,0
7,1980,104,-198,-498,337,-591,16254,0
7,1981,340,-128,-510,275,-627,16111,0
7,1982,26,-254,228,267,-589,15938,0
7,1983,-132,34,160,101,-534,16022,0
7,1984,-76,-774,-244,6,-521,15970,0
7,1985,-324,-590,322,-4,-536,16070,0
7,1986,172,-302,-48,38,-754,16041,0
7,1987,-110,-254,-510,149,-769,16171,0
7,1988,82,-520,-394,177,-697,16091,0
7,1989,-334,-866,264,238,-569,16070,0
7,1990,-200,-648,-314,217,-472,16107,0
7,1991,-234,-440,136,240,-497,16221,0
7,1992,-178,-590,632,345,-695,16244,0
7,1993,60,-694,172,295,-804,16271,0
7,1994,532,-278,-220,289,-688,16118,0
7,1995,104,-12,206,211,-439,16061,0
7,1996,-76,-94,-118,140,-252,15988,0
7,1997,-392,-244,-510,150,-140,15897,0
7,1998,-304,-924,32,212,-219,15961,0
7,1999,-358,-416,148,278,-428,16187,0
7,2000,-212,-324,-348,362,-567,16374,0
7,2001,194,-348,22,330,-676,16263,0
7,2002,510,-128,610,211,-657,16143,0
7,2003,432,-266,182,73,-576,16080,0
7,2004,-210,-402,-232,76,-429,16045,0
7,2005,84,256,-70,121,-398,15946,0
7,2006,-178,-186,172,211,-473,15961,0
7,2007,-210,-356,32,334,-547,16005,0
7,2008,2,-348,264,477,-672,16061,0
7,2009,-200,-382,518,647,-831,16063,0
7,2010,184,-198,126,613,-879,16097,0
7,2011,454,-914,-302,462,-768,16206,0
7,2012,566,542,-324,383,-650,16196,0
7,2013,228,-140,-498,207,-473,16226,0
7,2014,296,-820,-682,55,-400,16159,0
7,2015,-132,-648,-60,101,-358,15927,0
7,2016,-426,-544,668,160,-320,15915,0
7,2017,-370,-302,460,219,-463,16054,0
7,2018,-392,-994,136,319,-592,16256,0
7,2019,240,22,598,325,-578,16358,0
7,2020,376,-242,414,228,-597,16284,0
7,2021,-370,-612,-566,210,-458,16154,0
7,2022,-212,-716,10,227,-422,15991,0
7,2023,-110,-1040,-210,340,-450,15784,0
7,2024,-436,-128,90,358,-498,15911,0
7,2025,-52,-34,276,369,-560,16105,0
7,2026,-200,-740,424,450,-551,16178,0
7,2027,-32,-348,-220,444,-554,16182,0
7,2028,104,-370,-360,420,-572,16112,0
7,2029,14,0,-406,369,-633,16050,0
7,2030,-20,-636,-394,435,-615,16039,0
7,2031,70,114,-348,474,-596,16040,0
7,2032,-288,-334,-152,347,-565,16028,0
7,2033,-76,-612,736,338,-601,16127,0
7,2034,82,-544,78,379,-618,16152,0
7,2035,-122,-752,-140,413,-668,16241,0
7,2036,250,-416,-14,410,-671,16193,0
7,2037,-42,-660,-60,447,-604,16127,0
7,2038,-256,80,-544,404,-508,16150,0
7,2039,126,-140,332,274,-466,16041,0
7,2040,-290,-624,414,348,-359,16042,0
7,2041,80,-324,182,301,-413,16053,0
7,2042,-538,-556,182,420,-482,16078,0
7,2043,-528,-244,22,494,-473,16083,0
7,2044,-188,-716,90,526,-577,16079,0
7,2045,-358,208,-60,557,-592,16188,0
7,2046,-324,-486,390,599,-633,16167,0
7,2047,126,34,-106,556,-748,16193,0
7,2048,194,-82,-14,517,-709,16065,0
7,2049,2,208,-532,453,-602,16019,0
7,2050,196,186,-348,368,-459,16024,0
7,2051,242,-126,332,314,-377,16000,0
7,2052,-344,-196,-128,340,-404,15942,0
7,2053,-224,-428,194,374,-432,16011,0
7,2054,-220,-252,194,409,-520,16149,0
7,2055,118,-346,102,459,-617,16144,0
7,2056,318,-452,-394,548,-675,16068,0
7,2057,12,-82,-520,506,-627,16003,0
7,2058,102,-104,56,379,-590,15986,0
7,2059,-154,-206,-174,369,-478,16001,0
7,2060,-64,34,378,335,-395,15985,0
7,2061,-302,416,310,349,-354,16104,0
7,2062,14,-556,368,397,-454,16183,0
7,2063,-32,300,-520,434,-592,16201,0
7,2064,294,206,-292,483,-731,16096,0
7,2065,-380,-452,264,481,-606,16049,0
7,2066,38,24,-336,509,-595,16071,0
7,2067,116,-198,10,527,-605,16077,0
7,2068,-8,-266,218,533,-572,16059,0
7,2069,-346,-140,-440,491,-560,16124,0
7,2070,-32,-382,-232,447,-506,16093,0
7,2071,-236,-186,-428,390,-516,16139,0
7,2072,-98,-544,-128,356,-558,16084,0
7,2073,104,-394,-486,328,-542,16118,0
7,2074,-178,-972,620,307,-530,16071,0
7,2075,-132,0,736,423,-535,16064,0
7,2076,-42,-358,-48,424,-593,16005,0
7,2077,-18,-148,-48,468,-519,16127,0
7,2078,138,-266,-2,443,-515,16094,0
7,2079,-144,58,-244,412,-558,16086,0
