id,cnt,gx,gy,gz,ax,ay,az,pls
0,0,-352,-436,-22,-1816,1118,16068,0
0,1,-408,-366,-564,-1781,1036,15916,0
0,2,-120,-288,390,-1776,920,15906,0
0,3,-140,336,-14,-1775,875,15930,0
0,4,104,-820,-266,-1723,1034,15959,0
0,5,152,-714,102,-1651,1063,16084,0
0,6,242,-68,78,-1701,1130,16097,0
0,7,-122,-462,-278,-1745,1126,16001,0
0,8,84,48,-440,-1747,1011,15915,0
0,9,-52,94,126,-1697,934,15834,0
0,10,-230,-126,-210,-1649,918,15833,0
0,11,-18,568,-428,-1684,955,15957,0
0,12,-38,36,-48,-1749,1026,15925,0
0,13,118,-426,-602,-1749,1004,15959,0
0,14,-128,-368,136,-1746,1012,16023,0
0,15,130,-450,586,-1693,1032,15995,0
0,16,-154,-114,276,-1751,1064,15938,0
0,17,-288,-576,-128,-1698,1064,15943,0
0,18,-96,210,528,-1748,1077,15910,0
0,19,48,358,-48,-1756,1037,15835,0
0,20,230,60,-660,-1791,1105,15852,0
0,21,-122,208,160,-1836,1046,15881,0
0,22,-6,94,-82,-1792,1073,15935,0
0,23,106,-610,-336,-1771,1059,15989,0
0,24,-152,-300,-140,-1748,1107,15963,0
0,25,-110,-370,770,-1685,1030,15913,0
0,26,150,46,-14,-1696,986,15888,0
0,27,-174,336,-140,-1632,978,15887,0
0,28,-142,36,172,-1652,962,15863,0
0,29,186,486,10,-1756,1017,15999,0
0,30,-184,-472,-198,-1770,1096,15940,0
0,31,-52,244,-382,-1769,1092,15964,0
0,32,-310,-438,-278,-1726,1023,15905,0
0,33,-16,-368,-520,-1715,1063,15927,0
0,34,-52,220,-210,-1691,1102,15915,0
0,35,-122,-278,770,-1682,1064,15933,0
0,36,-244,-322,-890,-1729,1013,15886,0
0,37,-322,128,-544,-1833,1011,15878,0
0,38,64,382,574,-1830,1067,15980,0
0,39,-310,-460,-128,-1876,1077,15923,0
0,40,152,-44,10,-1814,1098,15921,0
0,41,322,-218,78,-1827,1136,15949,0
0,42,-30,-496,-82,-1852,1156,16002,0
0,43,-178,-670,-210,-1887,1138,15981,0
0,44,254,-288,114,-1812,1070,15909,0
0,45,-366,-184,-128,-1719,990,15920,0
0,46,-492,36,136,-1733,954,15919,0
0,47,-120,-172,286,-1677,958,15940,0
0,48,162,-380,402,-1679,966,15993,0
0,49,-62,116,-140,-1775,1001,16023,0
0,50,-336,-312,-256,-1805,1009,15967,0
0,51,-288,-380,-394,-1832,1035,15847,0
0,52,-354,-1154,-106,-1891,1022,15815,0
0,53,-40,-438,-556,-1787,971,16065,0
0,54,-62,-44,10,-1797,1149,16059,0
0,55,-356,-450,322,-1811,1253,15831,0
0,56,104,-474,-2,-1756,993,15872,0
0,57,-84,-934,424,-1790,934,15969,0
0,58,86,-542,-164,-1733,1152,15888,0
0,59,-302,-1168,240,-1621,1256,15820,0
0,60,-558,-1096,-360,-1395,1232,15814,0
0,61,-334,128,-198,-1331,1231,15729,0
0,62,-378,-392,-82,-1443,1082,15836,0
0,63,36,-624,148,-1595,1036,16061,0
0,64,26,-602,90,-1639,1154,16187,0
0,65,-154,-600,286,-1464,1262,16165,0
0,66,-4,-196,148,-1396,1317,16057,0
0,67,-344,2,-440,-1414,1259,15979,0
0,68,-410,-34,-462,-1445,1047,15943,0
0,69,-332,232,586,-1357,860,15968,0
0,70,-684,-646,620,-1386,726,15976,0
0,71,-528,-1132,172,-1273,634,15943,0
0,72,-254,-196,494,-1427,552,15893,0
0,73,152,-172,172,-1498,617,15865,0
0,74,298,198,148,-1602,831,15942,0
0,75,96,-68,-24,-1649,1048,16063,0
0,76,-38,-460,276,-1694,1138,16177,0
0,77,140,-242,44,-1758,1091,16179,0
0,78,-280,-624,264,-1750,993,16020,0
0,79,-178,-428,-140,-1758,831,15947,0
0,80,266,-242,136,-1616,788,15846,0
0,81,208,810,-152,-1581,777,15792,0
0,82,264,-34,-452,-1543,886,15856,0
0,83,466,-472,656,-1514,983,15903,0
0,84,288,-346,-106,-1464,1144,15997,0
0,85,84,-762,-520,-1434,1183,16087,0
0,86,-40,-922,148,-1336,1137,16047,0
0,87,-310,-714,-164,-1321,1042,16093,0
0,88,152,-138,-578,-1285,1032,15999,0
0,89,-62,-44,-406,-1337,1002,15897,0
0,90,-40,2,460,-1411,1011,15851,0
0,91,184,172,-106,-1537,986,15938,0
0,92,92,-312,-256,-1591,935,16009,0
0,93,162,544,564,-1556,973,16054,0
0,94,104,218,424,-1453,1057,16044,0
0,95,-18,244,264,-1321,1078,16049,0
0,96,-210,324,-244,-1396,1100,15983,0
0,97,152,-80,-94,-1535,1045,15926,0
0,98,4,244,-498,-1616,1048,15999,0
0,99,210,-114,-440,-1670,1050,15923,0
0,100,-62,-750,-266,-1584,1086,15914,0
0,101,-132,-798,-428,-1493,1066,16038,0
0,102,-30,60,-266,-1448,1013,15957,0
0,103,-154,-414,-36,-1431,966,15913,0
0,104,-6,-288,-128,-1437,1018,15985,0
0,105,-18,-542,-82,-1497,1022,16003,0
0,106,-52,-380,194,-1541,983,15995,0
0,107,126,-290,-290,-1561,1020,15931,0
0,108,-210,-530,78,-1466,1009,15983,0
0,109,-176,164,252,-1431,1004,15872,0
0,110,-20,34,-140,-1455,993,15940,0
0,111,-120,394,-128,-1465,1056,15936,0
0,112,-222,92,-220,-1529,1061,15996,0
0,113,128,-44,252,-1624,1094,16007,0
0,114,-18,220,-394,-1577,1105,16015,0
0,115,-196,-196,-360,-1477,1096,16021,0
0,116,-154,36,148,-1458,1036,15972,0
0,117,-378,394,-336,-1414,969,15909,0
0,118,-244,336,310,-1457,944,15897,0
0,119,60,450,172,-1527,1020,15944,0
0,120,28,452,310,-1492,1126,16047,0
0,121,-220,-80,322,-1478,1163,16015,0
0,122,152,914,-602,-1585,1154,16016,0
0,123,-30,-80,-220,-1548,1045,15963,0
0,124,-130,152,-266,-1582,1016,15868,0
0,125,-266,116,10,-1630,958,15901,0
0,126,-256,-12,44,-1625,833,15844,0
0,127,142,788,-210,-1685,824,15922,0
0,128,-52,210,68,-1667,790,15913,0
0,129,30,-252,886,-1646,858,16034,0
0,130,28,336,344,-1643,886,15985,0
0,131,128,-484,-186,-1632,942,15954,0
0,132,94,82,172,-1654,972,15964,0
0,133,152,-44,22,-1659,1069,15979,0
0,134,-52,-426,-856,-1622,1112,15998,0
0,135,-60,70,-82,-1542,1010,15980,0
0,136,150,-140,378,-1453,947,15980,0
0,137,106,60,-452,-1522,962,16012,0
0,138,154,382,-266,-1579,1024,16032,0
0,139,128,106,160,-1728,1088,16031,0
0,140,-244,510,114,-1739,1147,15957,0
0,141,-42,-24,-24,-1717,1143,15864,0
0,142,-42,-150,-324,-1643,1109,15810,0
0,143,198,-288,-82,-1631,1005,15902,0
0,144,230,2,-820,-1640,998,15936,0
0,145,230,12,-382,-1728,1068,16054,0
0,146,28,-460,286,-1727,1097,16066,0
0,147,-62,568,126,-1756,1109,15923,0
0,148,140,-264,-278,-1674,1096,15866,0
0,149,-40,-634,656,-1589,1076,15862,0
0,150,274,10,102,-1507,1150,15884,0
0,151,218,-276,252,-1503,1165,15951,0
0,152,-268,58,978,-1590,1153,15982,0
0,153,-6,12,172,-1661,1214,16011,0
0,154,-108,-10,10,-1686,1165,15908,0
0,155,-60,730,78,-1676,1159,15843,0
0,156,-132,114,160,-1704,1133,15878,0
0,157,-164,-10,-636,-1697,1160,15930,0
0,158,-142,-242,-382,-1618,1116,15931,0
0,159,-164,-160,240,-1580,1131,15919,0
0,160,160,114,-440,-1528,1061,15976,0
0,161,-186,-114,-728,-1512,1079,15927,0
0,162,-154,-242,506,-1545,1126,15939,0
0,163,-218,152,-36,-1635,1038,15968,0
0,164,-208,648,114,-1707,982,15941,0
0,165,16,198,-290,-1793,967,15963,0
0,166,72,-102,126,-1737,970,15980,0
0,167,16,-230,102,-1639,974,15981,0
0,168,-302,-382,494,-1562,1020,15946,0
0,169,-18,-242,172,-1588,1012,15928,0
0,170,-212,-624,-406,-1584,990,15960,0
0,171,94,24,22,-1602,972,16062,0
0,172,-108,-1062,206,-1595,991,15973,0
0,173,-460,138,-510,-1526,1070,15963,0
0,174,-50,-322,-232,-1527,1010,15987,0
0,175,-410,464,22,-1543,998,16007,0
0,176,84,-230,-302,-1574,1004,15970,0
0,177,72,268,-290,-1603,994,15913,0
0,178,-62,440,10,-1629,1009,15917,0
0,179,-166,-370,-232,-1575,1092,15886,0
0,180,-358,-116,22,-1549,1157,15849,0
0,181,-86,498,322,-1460,1165,15969,0
0,182,-254,-542,-556,-1454,1169,16037,0
0,183,16,-346,102,-1574,1115,16040,0
0,184,-60,268,-290,-1657,1032,16033,0
0,185,140,-438,160,-1648,1010,15948,0
0,186,-30,-230,-348,-1627,964,15969,0
0,187,-84,-102,240,-1605,968,15924,0
0,188,-458,810,114,-1679,962,15827,0
0,189,142,302,-174,-1758,964,15846,0
0,190,160,150,264,-1811,978,15946,0
0,191,16,220,714,-1787,1108,15934,0
0,192,-18,140,148,-1725,1196,15986,0
0,193,184,-404,-556,-1675,1180,16031,0
0,194,28,-10,-60,-1508,1059,15931,0
0,195,-356,12,206,-1431,969,15923,0
0,196,-390,116,-290,-1509,950,15784,0
0,197,-570,-368,22,-1421,905,15754,0
0,198,-404,-428,-302,-1354,969,15869,0
0,199,232,174,-48,-1204,1144,15970,0
0,200,62,-44,436,-1233,1094,16073,0
0,201,296,-348,632,-1373,990,16185,0
0,202,332,-126,264,-1665,1027,16167,0
0,203,-144,-94,148,-1874,1126,16112,0
0,204,-322,428,-256,-1869,1160,15912,0
0,205,-808,336,-198,-1789,995,15780,0
0,206,-584,34,-290,-1497,666,15797,0
0,207,-458,-44,-348,-1278,599,15889,0
0,208,-52,140,448,-1270,653,15897,0
0,209,84,544,228,-1211,684,15950,0
0,210,870,380,574,-1390,748,16078,0
0,211,962,902,298,-1631,922,16192,0
0,212,658,764,356,-1941,1298,16092,0
0,213,-54,-186,-152,-1938,1411,15995,0
0,214,40,764,-716,-1892,1407,15959,0
0,215,174,152,218,-1792,1229,15833,0
0,216,196,418,-486,-1805,1041,15780,0
0,217,162,394,-198,-1998,1139,15967,0
0,218,138,34,632,-2222,1284,15963,0
0,219,216,520,806,-2312,1294,15951,0
0,220,322,256,-636,-2340,1274,15766,0
0,221,298,94,172,-2322,1220,15812,0
0,222,4,198,-164,-2242,1234,15963,0
0,223,-322,844,-670,-2100,1280,15882,0
0,224,-176,902,-70,-2119,1288,15819,0
0,225,-42,786,482,-2170,1198,15812,0
0,226,2,716,-186,-2309,1084,15862,0
0,227,-8,-174,-302,-2334,1052,15833,0
0,228,422,614,460,-2219,1134,15919,0
0,229,28,-80,182,-2154,1162,15889,0
0,230,-74,152,-278,-2029,1278,15945,0
0,231,276,718,-14,-2023,1342,15881,0
0,232,-276,152,-314,-1984,1244,15971,0
0,233,174,360,22,-2073,1154,15886,0
0,234,62,-92,-118,-2059,1112,15816,0
0,235,60,-140,402,-2114,1115,15876,0
0,236,-6,36,114,-2175,1192,15894,0
0,237,16,-1142,286,-2077,1245,15909,0
0,238,-6,-530,-174,-2020,1299,15900,0
0,239,198,-1212,194,-1959,1303,15890,0
0,240,342,-576,-832,-1923,1289,15821,0
0,241,376,12,-244,-1951,1253,15858,0
0,242,-76,-486,-82,-1987,1276,15881,0
0,243,162,-426,-118,-1977,1306,15968,0
0,244,198,-958,-128,-1994,1383,15905,0
0,245,-166,-820,68,-2011,1355,15870,0
0,246,152,-506,78,-1963,1374,15871,0
0,247,-322,-1270,-60,-1929,1282,15829,0
0,248,240,-578,-740,-1856,1266,15867,0
0,249,106,-1074,206,-1858,1289,15939,0
0,250,140,-958,-266,-1845,1297,15915,0
0,251,208,-264,-510,-1839,1321,15929,0
0,252,-18,-646,-324,-1858,1318,15962,0
0,253,16,-10,-106,-1850,1336,15985,0
0,254,278,-230,32,-1946,1376,15911,0
0,255,-8,-474,78,-2023,1402,15975,0
0,256,-62,-184,-60,-2020,1353,15846,0
0,257,-18,-668,32,-1987,1366,15850,0
0,258,2,-868,944,-1965,1341,15919,0
0,259,150,-498,322,-1884,1255,15942,0
1,260,-208,348,-728,-1460,1376,15923,0
1,261,-176,24,-186,-1473,1307,15939,0
1,262,162,-22,78,-1465,1318,15896,0
1,263,160,-774,-486,-1557,1292,15918,0
1,264,28,268,-94,-1554,1412,15920,0
1,265,-54,0,-60,-1536,1376,15945,0
1,266,196,186,172,-1567,1342,15893,0
1,267,218,-184,-82,-1578,1335,15948,0
1,268,276,-426,182,-1579,1375,15919,0
1,269,238,-358,114,-1550,1379,15910,0
1,270,130,-414,-14,-1522,1384,15954,0
1,271,86,70,494,-1489,1381,15943,0
1,272,-154,360,-128,-1439,1352,15895,0
1,273,-196,-230,-624,-1467,1309,15976,0
1,274,108,522,-94,-1533,1359,15944,0
1,275,-30,-692,78,-1539,1416,15921,0
1,276,-220,-472,-428,-1527,1503,15880,0
1,277,72,-80,-140,-1512,1476,15917,0
1,278,-72,-646,448,-1473,1453,15984,0
1,279,-8,-312,-48,-1505,1408,15936,0
1,280,208,-22,-2,-1509,1376,15978,0
1,281,-200,692,78,-1535,1434,15959,0
1,282,106,232,518,-1514,1456,15903,0
1,283,16,2,518,-1527,1467,15892,0
1,284,-244,590,10,-1553,1396,15961,0
1,285,106,-310,160,-1560,1361,15934,0
1,286,-220,48,-220,-1560,1353,15917,0
1,287,-186,568,-348,-1531,1368,15947,0
1,288,-86,-288,160,-1561,1378,15953,0
1,289,330,-602,-624,-1548,1395,15978,0
1,290,-198,-276,-336,-1559,1406,15954,0
1,291,172,22,172,-1553,1384,15938,0
1,292,16,94,-416,-1573,1391,15951,0
1,293,126,-266,344,-1512,1334,15897,0
1,294,-40,60,460,-1495,1367,15975,0
1,295,-86,-160,228,-1475,1478,15979,0
1,296,40,-68,-474,-1514,1493,15937,0
1,297,4,2,-266,-1522,1488,15960,0
1,298,62,418,-2,-1529,1465,15924,0
1,299,140,232,-198,-1563,1398,15888,0
1,300,-120,244,-462,-1570,1399,15885,0
1,301,-320,-576,-370,-1602,1341,15868,0
1,302,2,-150,-152,-1506,1393,15902,0
1,303,60,-208,-290,-1505,1497,15881,0
1,304,-344,116,44,-1376,1583,15947,0
1,305,-74,-564,-336,-1334,1620,16049,0
1,306,-278,-10,-60,-1340,1582,16012,0
1,307,-108,-206,252,-1389,1523,15919,0
1,308,-132,-104,-2,-1406,1498,15989,0
1,309,-120,-738,-128,-1459,1424,15847,0
1,310,-762,-22,-186,-1587,1364,15813,0
1,311,-334,-80,-232,-1712,1391,15753,0
1,312,-254,94,-890,-1759,1418,15828,0
1,313,-390,-22,102,-1721,1454,15913,0
1,314,-232,-472,-60,-1714,1386,16049,0
1,315,-208,-380,-532,-1678,1338,16042,0
1,316,-232,116,414,-1684,1257,15997,0
1,317,-86,-230,886,-1643,1180,15986,0
1,318,72,532,322,-1655,1257,15926,0
1,319,-266,-414,-232,-1595,1242,15994,0
1,320,376,302,-232,-1588,1168,16046,0
1,321,50,-68,160,-1690,1093,16031,0
1,322,218,-992,-290,-1700,1010,16001,0
1,323,252,-784,-152,-1641,1051,15951,0
1,324,154,-138,714,-1530,1254,15806,0
1,325,-154,428,-244,-1445,1406,15766,0
1,326,-64,-220,-174,-1363,1444,15762,0
1,327,84,636,218,-1403,1443,15989,0
1,328,174,476,206,-1477,1373,16143,0
1,329,160,-302,-648,-1650,1329,16146,0
1,330,320,-80,-118,-1689,1339,16107,0
1,331,118,-414,102,-1763,1332,15929,0
1,332,242,256,-416,-1774,1358,15765,0
1,333,398,138,-532,-1681,1478,15737,0
1,334,300,-184,-2,-1617,1493,15814,0
1,335,38,-172,-232,-1641,1515,15865,0
1,336,378,-196,-290,-1636,1600,15934,0
1,337,-98,-186,-2,-1618,1630,15926,0
1,338,242,-172,160,-1596,1742,15875,0
1,339,-108,-160,-1350,-1547,1762,15916,0
1,340,62,-322,-324,-1555,1755,15846,0
1,341,84,-402,-210,-1520,1734,15861,0
1,342,-96,-44,-890,-1572,1602,15908,0
1,343,-300,-44,-452,-1510,1536,15902,0
1,344,-72,324,114,-1562,1500,15880,0
1,345,-96,-264,-128,-1642,1481,15805,0
1,346,-320,-356,-140,-1654,1532,15855,0
1,347,162,152,136,-1670,1548,15847,0
1,348,-98,-810,160,-1656,1576,15910,0
1,349,-354,-380,-820,-1645,1568,16020,0
1,350,2,-70,-266,-1587,1576,15877,0
1,351,-368,-518,-302,-1572,1539,15882,0
1,352,-322,-460,-428,-1574,1554,15801,0
1,353,-322,-346,90,-1677,1616,15704,0
1,354,-232,-414,32,-1611,1681,15738,0
1,355,-614,-622,182,-1399,1812,15731,0
1,356,-942,-888,114,-1179,1794,15925,0
1,357,-832,-232,22,-1186,1575,16035,0
1,358,-310,-126,390,-1324,1242,16210,0
1,359,16,-866,78,-1530,1161,16219,0
1,360,-54,370,276,-1537,1352,16097,0
1,361,-648,-438,-128,-1596,1404,16011,0
1,362,-706,648,-660,-1687,1389,15833,0
1,363,-872,984,-266,-1795,1320,15756,0
1,364,-740,-438,482,-1815,1160,15827,0
1,365,-466,-264,-186,-1770,1048,15953,0
1,366,-246,542,252,-1757,955,15992,0
1,367,-52,106,586,-1750,1044,16163,0
1,368,128,394,148,-1742,1191,16065,0
1,369,36,-82,-324,-1731,1217,15943,0
1,370,62,336,390,-1738,1124,15878,0
1,371,-64,542,518,-1674,967,15879,0
1,372,-300,-392,-428,-1607,990,16020,0
1,373,-142,590,-94,-1542,994,15983,0
1,374,94,602,344,-1580,977,15973,0
1,375,186,-196,-636,-1686,1040,15971,0
1,376,-142,360,-106,-1779,1131,15964,0
1,377,38,-554,518,-1747,1211,15856,0
1,378,286,164,194,-1619,1290,15907,0
1,379,-52,-92,172,-1508,1350,15976,0
1,380,-62,290,-382,-1518,1321,16006,0
1,381,322,-68,194,-1578,1284,16032,0
1,382,60,-244,-452,-1591,1311,16022,0
1,383,196,348,-324,-1648,1345,15905,0
1,384,-64,-486,-474,-1668,1419,15802,0
1,385,-154,-300,-1120,-1641,1461,15843,0
1,386,-344,210,-370,-1609,1437,15865,0
1,387,-176,60,344,-1622,1356,15974,0
1,388,72,636,-452,-1667,1351,15961,0
1,389,72,-172,424,-1662,1389,16062,0
1,390,276,372,298,-1675,1454,15988,0
1,391,106,164,-452,-1726,1492,15894,0
1,392,-300,290,-220,-1808,1504,15876,0
1,393,-130,706,148,-1839,1399,15869,0
1,394,-400,232,148,-1856,1319,15783,0
1,395,-232,360,-452,-1869,1221,15775,0
1,396,-154,-148,90,-1765,1238,15886,0
1,397,-230,12,714,-1714,1267,15951,0
1,398,264,2,22,-1739,1321,15902,0
1,399,-88,-394,310,-1818,1370,15977,0
1,400,-142,-206,586,-1838,1438,15931,0
1,401,-266,-148,182,-1822,1427,15804,0
1,402,-164,-518,528,-1774,1279,15865,0
1,403,-8,-416,910,-1817,1266,15815,0
1,404,330,-358,-14,-1815,1187,15897,0
1,405,274,-728,148,-1842,1238,15897,0
1,406,276,-808,956,-1778,1418,15902,0
1,407,-30,-888,-14,-1767,1532,16041,0
1,408,-64,-1098,-682,-1763,1556,15925,0
1,409,-74,-1154,-48,-1647,1436,15954,0
1,410,-222,-1596,378,-1576,1281,16013,0
1,411,-52,-726,-82,-1503,1197,16057,0
1,412,-42,-856,-48,-1491,1173,16016,0
1,413,194,-774,298,-1549,1190,15987,0
1,414,60,288,182,-1605,1218,15997,0
1,415,-18,-472,-278,-1629,1200,15984,0
1,416,410,-148,160,-1594,1209,16034,0
1,417,332,-218,136,-1638,1286,15995,0
1,418,230,440,-474,-1722,1358,16033,0
1,419,62,660,-462,-1835,1471,15903,0
1,420,264,-564,-220,-1831,1400,15920,0
1,421,-40,394,-128,-1760,1403,15921,0
1,422,94,-426,136,-1661,1409,15916,0
1,423,218,324,472,-1613,1393,15954,0
1,424,310,1042,114,-1632,1489,15899,0
1,425,16,-484,240,-1670,1561,16071,0
1,426,72,498,286,-1697,1549,15908,0
1,427,-54,242,-36,-1644,1508,15817,0
1,428,-30,220,424,-1613,1481,15775,0
1,429,-164,972,356,-1475,1571,15777,0
1,430,-52,602,-106,-1491,1631,15907,0
1,431,-64,-104,-786,-1524,1675,15988,0
1,432,162,-126,-382,-1608,1714,15972,0
1,433,-108,-300,322,-1623,1549,15899,0
1,434,-106,210,-590,-1688,1411,15865,0
1,435,-120,174,78,-1714,1355,15791,0
1,436,-122,426,794,-1778,1453,15836,0
1,437,28,186,518,-1773,1538,15867,0
1,438,-242,-484,-314,-1823,1612,15893,0
1,439,-276,164,-70,-1871,1456,15985,0
1,440,18,718,252,-1867,1453,15976,0
1,441,-176,82,-128,-1907,1463,15875,0
1,442,-154,510,-48,-1893,1370,15891,0
1,443,-334,-242,-152,-1916,1472,15732,0
1,444,-368,-380,368,-1943,1321,15830,0
1,445,4,-842,378,-1879,1393,15799,0
1,446,-18,-414,770,-1864,1451,15843,0
1,447,-218,-704,56,-1830,1360,15885,0
1,448,-446,-738,390,-1808,1352,15912,0
1,449,-142,-322,1036,-1778,1291,15915,0
1,450,-290,-394,390,-1843,1346,15946,0
1,451,-334,-80,552,-1936,1284,15798,0
1,452,-178,-972,368,-1890,1217,15747,0
1,453,-254,-1142,344,-1842,1465,15644,0
1,454,-480,-576,574,-1714,1471,15766,0
1,455,-344,-172,218,-1637,1599,15875,0
1,456,-156,-1098,264,-1616,1577,15981,0
1,457,-230,-714,-140,-1646,1364,16116,0
1,458,-346,-1064,472,-1691,1269,16082,0
1,459,72,-22,668,-1706,1276,16071,0
1,460,160,-278,172,-1714,1258,15983,0
1,461,-278,-196,90,-1696,1246,15914,0
1,462,-302,196,-70,-1627,1230,15833,0
1,463,-528,-382,136,-1625,1169,15860,0
1,464,-470,114,-670,-1641,1083,15924,0
1,465,162,-300,-2,-1697,1172,15940,0
1,466,4,-680,436,-1761,1291,16022,0
1,467,2,-670,472,-1836,1392,15992,0
1,468,-96,-402,22,-1755,1430,15935,0
1,469,-154,-160,172,-1690,1326,15828,0
1,470,-310,-206,-198,-1655,1292,15816,0
1,471,-448,-198,-612,-1601,1365,15811,0
1,472,-86,70,-140,-1657,1260,15986,0
1,473,-64,-740,56,-1800,1346,15888,0
1,474,-210,324,-486,-1835,1380,15874,0
1,475,-188,-94,-440,-1790,1492,15879,0
1,476,-220,-484,-278,-1648,1434,15821,0
1,477,118,152,-544,-1581,1480,15944,0
1,478,-178,254,-232,-1734,1474,15961,0
1,479,-176,-322,378,-1760,1300,16008,0
1,480,128,-484,-24,-1871,1368,16040,0
1,481,-324,-694,-82,-1786,1272,15950,0
1,482,62,-380,816,-1598,1211,15933,0
1,483,-154,-484,102,-1633,1215,15887,0
1,484,-254,-300,-694,-1724,1173,15918,0
1,485,150,184,-290,-1848,1202,15942,0
1,486,286,-368,276,-1988,1273,15966,0
1,487,-164,-438,-474,-2032,1333,15927,0
1,488,-156,-140,-406,-2005,1305,15979,0
1,489,-212,-370,-140,-1885,1278,15925,0
1,490,-154,70,-440,-1790,1275,15850,0
1,491,-290,-198,-314,-1718,1266,15966,0
1,492,18,382,-70,-1698,1302,15938,0
1,493,16,210,-866,-1671,1376,16018,0
1,494,-244,140,-462,-1595,1390,16001,0
1,495,-186,-44,-220,-1650,1319,15913,0
1,496,196,636,68,-1633,1291,15925,0
1,497,-108,82,172,-1548,1288,15855,0
1,498,-186,-160,402,-1456,1332,15888,0
1,499,-88,10,-462,-1475,1319,15880,0
1,500,-40,-288,276,-1589,1232,15943,0
1,501,-40,210,436,-1737,1257,15987,0
1,502,128,-288,-36,-1725,1319,15988,0
1,503,-312,588,44,-1725,1233,16033,0
1,504,-98,10,494,-1718,1108,15943,0
1,505,140,314,-48,-1666,1099,15824,0
1,506,38,-138,-348,-1759,1084,15812,0
1,507,116,46,90,-1892,1170,15793,0
1,508,-246,126,-510,-2089,1308,15923,0
1,509,-86,-980,-128,-2108,1266,15966,0
1,510,126,-198,252,-2006,1384,15970,0
1,511,-310,48,136,-1929,1273,15999,0
1,512,-278,-160,-510,-1971,1281,15949,0
1,513,-198,-1108,102,-2015,1294,15842,0
1,514,-164,-496,506,-2106,1292,15712,0
1,515,-18,-402,44,-2110,1420,15738,0
1,516,-18,-148,32,-1945,1450,15869,0
1,517,-72,290,-244,-1914,1410,15994,0
1,518,184,312,194,-1898,1412,16046,0
1,519,-142,-34,22,-1887,1340,16037,0
2,520,-122,370,90,-1498,1368,15907,0
2,521,-42,-774,-486,-1508,1314,15830,0
2,522,276,636,-486,-1513,1314,15876,0
2,523,-344,-992,-462,-1438,1473,15929,0
2,524,-302,-798,-912,-1468,1491,15953,0
2,525,-8,46,-890,-1497,1480,15922,0
2,526,48,-254,-324,-1531,1438,15943,0
2,527,-108,-634,-1062,-1505,1462,15909,0
2,528,-8,-24,-2,-1490,1412,15905,0
2,529,-164,-206,-140,-1465,1368,15895,0
2,530,-86,-276,-912,-1502,1369,15873,0
2,531,286,-114,-220,-1465,1383,15947,0
2,532,-74,-1108,-128,-1463,1369,15935,0
2,533,-166,-416,-244,-1483,1360,15931,0
2,534,-302,-70,-428,-1460,1359,15921,0
2,535,86,186,494,-1479,1349,15874,0
2,536,-300,-218,-774,-1536,1405,15971,0
2,537,48,288,-82,-1524,1422,15968,0
2,538,-20,-336,10,-1524,1420,15914,0
2,539,36,-186,-820,-1515,1405,15921,0
2,540,150,162,-232,-1478,1431,15991,0
2,541,-246,-404,-14,-1476,1436,15953,0
2,542,-86,174,-590,-1495,1423,15845,0
2,543,-74,186,-60,-1452,1372,15897,0
2,544,-130,-206,-48,-1470,1373,15935,0
2,545,-74,-10,-416,-1493,1390,15926,0
2,546,-64,-36,-832,-1472,1389,15867,0
2,547,-234,-128,-314,-1512,1419,15928,0
2,548,-6,-726,-336,-1538,1413,15917,0
2,549,-86,-300,-394,-1492,1420,15914,0
2,550,-98,-556,194,-1514,1405,15929,0
2,551,-186,-668,-566,-1507,1367,15923,0
2,552,28,128,-186,-1470,1394,15950,0
2,553,62,-726,-360,-1453,1410,15968,0
2,554,-32,-624,-428,-1479,1378,15923,0
2,555,-8,-128,-266,-1460,1440,15952,0
2,556,-122,-186,206,-1473,1421,15932,0
2,557,82,-198,44,-1478,1411,15990,0
2,558,-154,-102,-648,-1470,1461,15987,0
2,559,-234,-740,-152,-1503,1440,15875,0
2,560,-122,-312,-474,-1568,1383,15851,0
2,561,250,172,-106,-1474,1303,15821,0
2,562,-30,-230,44,-1477,1299,15873,0
2,563,-32,-612,-670,-1508,1339,15873,0
2,564,92,92,-532,-1559,1395,15937,0
2,565,36,68,540,-1587,1389,15902,0
2,566,16,82,-302,-1573,1433,15999,0
2,567,-324,-186,-462,-1519,1441,16007,0
2,568,82,68,32,-1468,1464,15971,0
2,569,172,-244,-636,-1489,1394,15912,0
2,570,-62,-172,-612,-1473,1402,15920,0
2,571,-96,-276,-602,-1431,1392,15883,0
2,572,16,-264,-762,-1483,1397,15898,0
2,573,-120,-356,22,-1440,1363,15965,0
2,574,62,-460,-60,-1469,1338,15939,0
2,575,-110,10,-624,-1474,1376,15964,0
2,576,140,428,-406,-1487,1466,15975,0
2,577,46,-232,-152,-1469,1471,15991,0
2,578,-176,-588,-510,-1447,1467,15946,0
2,579,126,288,228,-1466,1457,15964,0
2,580,-232,-80,172,-1476,1411,15910,0
2,581,-144,-232,-428,-1498,1411,15852,0
2,582,432,138,206,-1497,1394,15850,0
2,583,174,-184,126,-1536,1428,15938,0
2,584,48,-404,172,-1522,1429,15970,0
2,585,60,46,-556,-1523,1444,15951,0
2,586,94,-230,-70,-1515,1422,15893,0
2,587,-18,-334,-924,-1495,1359,15913,0
2,588,-64,-46,10,-1422,1426,15926,0
2,589,-42,-302,44,-1460,1425,15917,0
2,590,-278,-450,-266,-1538,1407,15928,0
2,591,162,106,344,-1575,1406,15946,0
2,592,70,162,322,-1548,1396,15950,0
2,593,-52,-900,182,-1504,1413,15998,0
2,594,-422,232,840,-1491,1422,15974,0
2,595,84,394,136,-1492,1414,15973,0
2,596,-86,-10,-198,-1485,1341,15891,0
2,597,4,-102,310,-1454,1317,15896,0
2,598,-20,172,356,-1458,1357,16015,0
2,599,-64,-636,-220,-1434,1395,15895,0
2,600,-40,106,56,-1486,1417,15927,0
2,601,116,-128,-82,-1493,1414,15928,0
2,602,310,-56,264,-1571,1472,15922,0
2,603,-30,-10,252,-1553,1443,15913,0
2,604,-76,-556,-164,-1535,1448,15934,0
2,605,-210,-830,-210,-1532,1417,15950,0
2,606,-290,-12,-48,-1497,1370,15912,0
2,607,-52,116,-532,-1496,1360,15878,0
2,608,-50,164,-348,-1498,1399,15904,0
2,609,-62,-322,-370,-1561,1434,15861,0
2,610,-178,-324,-578,-1544,1481,15907,0
2,611,62,-92,-370,-1555,1521,15955,0
2,612,-212,-486,22,-1558,1496,15994,0
2,613,-308,-126,-174,-1528,1490,15982,0
2,614,-18,-184,-60,-1428,1418,15883,0
2,615,-144,-24,-360,-1369,1346,15893,0
2,616,-404,-94,-324,-1432,1325,15941,0
2,617,126,22,-556,-1475,1370,15965,0
2,618,-110,-462,194,-1526,1421,15938,0
2,619,-256,-94,-118,-1524,1474,15910,0
2,620,-186,498,-370,-1498,1462,15935,0
2,621,-96,-310,206,-1459,1470,15965,0
2,622,-344,-80,-486,-1473,1401,15882,0
2,623,-98,-290,-774,-1518,1334,15914,0
2,624,26,-128,228,-1558,1346,15888,0
2,625,-176,94,-198,-1585,1329,15874,0
2,626,140,-44,78,-1550,1366,15877,0
2,627,-198,24,378,-1558,1421,15891,0
2,628,126,114,-544,-1522,1463,15908,0
2,629,40,-68,-82,-1504,1450,15944,0
2,630,-4,-576,-210,-1518,1444,15996,0
2,631,-178,22,-244,-1505,1428,15940,0
2,632,-52,382,-164,-1492,1417,15923,0
2,633,-74,-148,424,-1462,1403,15926,0
2,634,84,2,-198,-1489,1393,15855,0
2,635,-278,-44,56,-1543,1386,15936,0
2,636,-256,-428,-60,-1528,1391,15942,0
2,637,-154,-414,-602,-1565,1421,15977,0
2,638,-52,12,-474,-1514,1428,15899,0
2,639,-200,-462,-256,-1442,1417,15966,0
2,640,38,-356,-544,-1502,1444,15951,0
2,641,150,22,32,-1501,1440,15982,0
2,642,-198,-576,494,-1519,1429,15931,0
2,643,-32,-416,-452,-1505,1419,15944,0
2,644,106,-264,-602,-1452,1410,15906,0
2,645,-302,-244,-186,-1469,1393,15923,0
2,646,194,-290,-406,-1492,1384,15841,0
2,647,250,196,-2,-1507,1417,16028,0
2,648,-300,-206,102,-1553,1521,15998,0
2,649,4,-10,44,-1570,1478,15964,0
2,650,-140,-252,-220,-1494,1442,15915,0
2,651,174,82,240,-1510,1439,15900,0
2,652,-88,-404,-510,-1468,1403,15883,0
2,653,-176,-414,-336,-1489,1395,15938,0
2,654,-404,-566,-60,-1485,1404,15895,0
2,655,104,22,-256,-1534,1393,15928,0
2,656,106,-44,-256,-1503,1459,15994,0
2,657,94,-114,-60,-1511,1446,15970,0
2,658,14,-566,-416,-1468,1411,15994,0
2,659,-232,-310,-682,-1508,1360,15930,0
2,660,-64,-416,-186,-1480,1354,15886,0
2,661,-62,-414,-590,-1504,1413,15880,0
2,662,26,114,-370,-1518,1398,15911,0
2,663,-234,-302,-360,-1552,1393,15930,0
2,664,94,36,-556,-1485,1410,15944,0
2,665,38,452,68,-1521,1407,15981,0
2,666,-88,-150,228,-1419,1413,15882,0
2,667,-324,-150,-636,-1441,1363,15874,0
2,668,-96,186,-486,-1500,1397,15920,0
2,669,-76,-474,-440,-1502,1454,15959,0
2,670,128,2,-520,-1496,1460,16004,0
2,671,72,24,78,-1542,1468,15978,0
2,672,-310,-196,402,-1499,1461,15979,0
2,673,-74,302,-670,-1513,1488,15987,0
2,674,-256,-46,-406,-1447,1414,15842,0
2,675,16,-438,44,-1413,1360,15933,0
2,676,140,382,-578,-1438,1336,15936,0
2,677,-18,486,-544,-1476,1383,16003,0
2,678,-42,-186,-416,-1509,1483,16013,0
2,679,218,522,-566,-1531,1541,15956,0
2,680,-120,-252,-244,-1524,1516,15882,0
2,681,-8,208,32,-1473,1429,15890,0
2,682,2,-302,-602,-1482,1383,15902,0
2,683,48,46,-624,-1501,1315,15937,0
2,684,-220,-172,-152,-1542,1312,15911,0
2,685,-76,-12,-544,-1600,1361,15923,0
2,686,-244,660,-428,-1582,1383,15929,0
2,687,16,-288,-382,-1508,1386,15928,0
2,688,-88,-244,-302,-1480,1418,15926,0
2,689,82,138,-94,-1473,1441,15880,0
2,690,-52,-830,390,-1499,1430,15936,0
2,691,-324,-140,-278,-1499,1452,15924,0
2,692,-28,116,-370,-1453,1395,15862,0
2,693,-122,-82,-60,-1426,1419,15922,0
2,694,-290,-336,-36,-1438,1384,15926,0
2,695,70,-46,-278,-1466,1395,15935,0
2,696,-32,-486,332,-1531,1374,15916,0
2,697,-108,-34,-24,-1515,1445,15908,0
2,698,36,208,-578,-1566,1451,15976,0
2,699,-130,602,-60,-1514,1469,15954,0
2,700,72,-970,-428,-1504,1461,15945,0
2,701,26,-36,-890,-1491,1399,15933,0
2,702,-266,12,-266,-1511,1418,15865,0
2,703,-8,-290,-440,-1533,1396,15929,0
2,704,152,580,-602,-1488,1411,15896,0
2,705,-40,-68,-128,-1443,1364,15930,0
2,706,-110,-832,-694,-1461,1389,15926,0
2,707,138,92,160,-1487,1406,15953,0
2,708,-110,-312,-602,-1448,1441,15925,0
2,709,-290,-278,-856,-1466,1434,15907,0
2,710,-412,24,-278,-1530,1453,15908,0
2,711,-166,-174,78,-1499,1410,15903,0
2,712,-210,-1004,-36,-1442,1429,15903,0
2,713,104,728,448,-1471,1410,15947,0
2,714,-154,-818,182,-1482,1447,15917,0
2,715,-392,-58,-382,-1511,1456,15886,0
2,716,208,348,286,-1492,1431,15965,0
2,717,-98,92,-118,-1459,1396,15970,0
2,718,4,-622,564,-1473,1430,15990,0
2,719,-88,126,-14,-1471,1437,15967,0
2,720,-54,-186,414,-1553,1412,15959,0
2,721,-164,-138,-128,-1515,1404,15930,0
2,722,252,-472,598,-1509,1393,15918,0
2,723,30,486,22,-1497,1402,15965,0
2,724,50,-496,264,-1477,1381,15980,0
2,725,-76,0,552,-1510,1399,15960,0
2,726,-42,276,44,-1574,1466,15936,0
2,727,160,-116,-660,-1557,1415,15937,0
2,728,14,-58,32,-1478,1415,15919,0
2,729,4,-438,-198,-1444,1405,15900,0
2,730,138,-404,-244,-1446,1417,15913,0
2,731,-176,48,298,-1466,1405,15895,0
2,732,82,-266,252,-1462,1392,15915,0
2,733,-176,-196,-290,-1414,1406,15942,0
2,734,-154,-68,286,-1458,1452,15938,0
2,735,-166,-266,126,-1468,1423,15947,0
2,736,-312,-312,-118,-1481,1399,15881,0
2,737,-122,-290,114,-1471,1353,15932,0
2,738,-186,94,-452,-1462,1401,15932,0
2,739,-86,116,-612,-1463,1371,15880,0
2,740,152,844,-106,-1463,1388,15975,0
2,741,38,220,68,-1515,1461,16016,0
2,742,184,68,-716,-1557,1523,15934,0
2,743,2,370,-370,-1535,1493,15904,0
2,744,-280,-208,-186,-1492,1406,15902,0
2,745,106,-564,-302,-1481,1364,15902,0
2,746,48,-590,482,-1489,1322,15884,0
2,747,28,-10,586,-1504,1300,15879,0
2,748,-96,82,-244,-1582,1365,15967,0
2,749,84,210,-14,-1537,1413,15932,0
2,750,-64,10,310,-1537,1461,15920,0
2,751,208,440,102,-1514,1507,15909,0
2,752,-108,-264,-198,-1463,1535,15907,0
2,753,-108,-10,56,-1475,1487,15912,0
2,754,-64,578,-394,-1512,1478,15912,0
2,755,-246,-670,-186,-1517,1401,15869,0
2,756,-178,196,286,-1448,1416,15877,0
2,757,-110,-278,228,-1491,1365,15932,0
2,758,-178,150,136,-1512,1398,15906,0
2,759,-166,-312,368,-1567,1459,16040,0
2,760,-86,-148,-324,-1511,1472,16003,0
2,761,-166,-1480,10,-1452,1477,15962,0
2,762,-86,302,298,-1481,1434,15927,0
2,763,-54,288,-2,-1526,1431,15885,0
2,764,-42,-82,-290,-1538,1433,15945,0
2,765,106,106,10,-1537,1462,15929,0
2,766,-54,-302,-164,-1542,1398,15904,0
2,767,-370,-370,-544,-1504,1380,15940,0
2,768,152,-310,194,-1514,1422,15878,0
2,769,48,-474,90,-1533,1454,15904,0
2,770,48,80,-474,-1486,1483,15968,0
2,771,72,174,-220,-1545,1468,15979,0
2,772,-166,426,-348,-1575,1493,15993,0
2,773,-222,-578,-486,-1530,1461,15941,0
2,774,-378,-242,172,-1465,1430,15858,0
2,775,-176,-206,402,-1470,1387,15878,0
2,776,-18,-322,-440,-1501,1395,15907,0
2,777,-76,46,-452,-1525,1415,15934,0
2,778,16,-610,-36,-1537,1441,15905,0
2,779,106,-438,-394,-1554,1450,15992,0
3,780,-86,-206,-70,177,-759,16021,0
3,781,152,752,-128,179,-765,16002,0
3,782,-8,-440,-256,185,-693,15981,0
3,783,-110,-12,322,195,-705,16014,0
3,784,-122,426,-186,200,-683,16054,0
3,785,-40,-148,-474,223,-751,15976,0
3,786,24,-636,-60,211,-718,15930,0
3,787,-122,230,44,248,-713,16035,0
3,788,28,-288,298,207,-748,16002,0
3,789,-320,-484,148,228,-789,16079,0
3,790,-64,-46,-394,209,-787,16069,0
3,791,-6,-738,-544,224,-759,16091,0
3,792,104,-520,-152,271,-718,16052,0
3,793,-280,104,-866,213,-697,16041,0
3,794,2,-266,78,228,-685,16051,0
3,795,-290,138,460,172,-684,16071,0
3,796,-42,114,-152,205,-736,15967,0
3,797,-86,-564,-36,205,-772,15967,0
3,798,-186,-496,702,178,-838,16016,0
3,799,82,-70,-164,202,-797,16013,0
3,800,-132,288,-394,194,-712,16097,0
3,801,-268,-486,564,197,-668,16125,0
3,802,-222,196,-128,227,-628,15981,0
3,803,-110,-278,344,210,-680,15995,0
3,804,-142,-346,436,253,-761,16004,0
3,805,-176,48,148,256,-777,15982,0
3,806,-278,-518,-370,222,-798,16042,0
3,807,70,380,552,198,-781,16010,0
3,808,-370,322,126,206,-746,16033,0
3,809,-164,140,194,142,-735,16059,0
3,810,-326,-150,-290,156,-740,16024,0
3,811,128,-460,68,167,-771,16066,0
3,812,46,-902,-602,193,-755,16059,0
3,813,-88,104,276,218,-749,16050,0
3,814,-6,-392,22,250,-732,15990,0
3,815,-234,-116,-682,268,-719,16005,0
3,816,-142,106,-624,260,-712,16050,0
3,817,36,-498,-360,230,-775,15985,0
3,818,62,-92,-370,259,-766,16026,0
3,819,216,554,-24,212,-705,16093,0
3,820,-222,242,-198,207,-729,16030,0
3,821,-268,-266,-762,200,-721,16019,0
3,822,60,-370,-220,176,-717,16015,0
3,823,184,-1028,160,222,-768,16019,0
3,824,-54,-198,-106,217,-728,16030,0
3,825,-110,-508,136,215,-726,16050,0
3,826,-166,-244,218,210,-759,16051,0
3,827,240,-636,-590,212,-752,16014,0
3,828,62,-230,-140,182,-753,15999,0
3,829,-186,382,724,139,-744,16015,0
3,830,-20,392,-302,175,-717,16083,0
3,831,-88,-198,-220,183,-695,16029,0
3,832,38,60,264,236,-703,15970,0
3,833,194,-764,472,286,-719,16019,0
3,834,70,-520,414,287,-740,15997,0
3,835,-62,-346,482,313,-741,15994,0
3,836,72,140,286,308,-761,16033,0
3,837,-234,-174,-370,221,-775,16064,0
3,838,-64,-336,-14,175,-758,16038,0
3,839,182,56,262,103,-723,16106,0
3,840,-180,-382,-60,97,-752,16070,0
3,841,-336,-82,-556,106,-723,16051,0
3,842,-234,-382,-740,155,-728,15958,0
3,843,-142,-172,-416,222,-794,15917,0
3,844,60,-416,-24,305,-754,15984,0
3,845,-34,-266,448,366,-731,15992,0
3,846,-426,-186,-694,346,-765,16054,0
3,847,-32,496,-48,255,-791,16068,0
3,848,-52,140,22,190,-776,16102,0
3,849,-232,522,228,132,-717,16048,0
3,850,126,-486,-106,154,-684,16034,0
3,851,-64,-440,356,216,-693,16023,0
3,852,152,-346,-94,238,-681,15996,0
3,853,26,-1306,586,307,-739,16043,0
3,854,-186,94,760,240,-752,16009,0
3,855,206,-358,-106,211,-763,16068,0
3,856,62,-900,206,173,-784,16164,0
3,857,-98,-254,-14,147,-722,16073,0
3,858,-144,-150,10,166,-738,16042,0
3,859,-166,-972,-186,251,-761,15982,0
3,860,60,-336,368,270,-781,16035,0
3,861,152,-300,-498,304,-804,16013,0
3,862,114,-302,-762,316,-798,16057,0
3,863,-20,138,-94,249,-749,16052,0
3,864,-222,-290,436,175,-689,16148,0
3,865,-290,-348,-406,182,-683,16076,0
3,866,184,-186,-174,172,-669,16064,0
3,867,118,186,-278,170,-655,16003,0
3,868,-210,-402,-118,224,-704,15942,0
3,869,26,-198,-60,221,-737,15941,0
3,870,-166,-348,10,220,-742,16048,0
3,871,-32,-220,-232,200,-774,16109,0
3,872,-288,-808,-36,175,-760,16079,0
3,873,-178,-198,228,164,-731,16031,0
3,874,-74,-230,-118,160,-760,16061,0
3,875,-132,-440,-256,184,-733,15990,0
3,876,-8,114,322,226,-779,15990,0
3,877,-200,-46,-406,196,-745,16022,0
3,878,-8,-162,182,226,-746,16007,0
3,879,160,162,-510,178,-781,16063,0
3,880,-290,-348,-174,166,-805,16090,0
3,881,-178,-428,-624,178,-732,16065,0
3,882,-212,-394,-106,166,-685,16054,0
3,883,-392,68,-14,197,-665,15956,0
3,884,2,-278,-474,217,-731,16116,0
3,885,-110,404,-36,197,-757,16005,0
3,886,-20,-740,160,254,-848,16021,0
3,887,140,-380,-752,203,-770,16019,0
3,888,-32,-174,-220,266,-764,16016,0
3,889,126,-1028,586,260,-718,16028,0
3,890,-54,-590,-48,242,-673,16025,0
3,891,118,220,-370,262,-680,16050,0
3,892,-322,-714,-566,309,-688,16067,0
3,893,-156,138,-256,328,-742,16076,0
3,894,-132,-452,-198,285,-793,16087,0
3,895,-334,-346,668,250,-827,16079,0
3,896,-280,-394,-452,227,-810,15997,0
3,897,284,-12,-36,201,-801,16015,0
3,898,12,-752,32,181,-753,16007,0
3,899,-234,-208,-670,177,-758,16074,0
3,900,-144,46,-36,167,-738,16087,0
3,901,-176,-68,574,203,-760,16056,0
3,902,14,578,-532,184,-800,16027,0
3,903,-246,-12,-24,225,-840,15986,0
3,904,26,162,-48,244,-773,15959,0
3,905,-32,266,-256,275,-746,16000,0
3,906,26,-232,44,271,-692,16024,0
3,907,174,140,448,232,-700,16101,0
3,908,-212,184,264,157,-718,16111,0
3,909,-178,-104,-590,317,-759,16002,0
3,910,-52,-206,182,13,-754,15979,0
3,911,-302,-578,-94,59,-716,15980,0
3,912,-122,-24,-360,261,-742,15996,0
3,913,-64,-140,286,233,-768,16021,0
3,914,-54,-508,44,269,-819,16058,0
3,915,-132,-462,-462,282,-818,16069,0
3,916,84,486,194,223,-829,16029,0
3,917,-110,-162,378,180,-793,16002,0
3,918,50,-34,56,162,-750,16051,0
3,919,70,-46,102,187,-748,16012,0
3,920,-76,-70,-140,157,-713,16072,0
3,921,-122,-752,-314,235,-712,15941,0
3,922,-98,-302,-164,169,-687,16026,0
3,923,-8,-544,668,302,-788,16009,0
3,924,-52,-92,-544,162,-762,16107,0
3,925,-244,360,-302,214,-766,16060,0
3,926,-358,-1248,-382,231,-807,16038,0
3,927,-176,-310,-590,271,-798,16034,0
3,928,-392,-948,160,259,-763,15986,0
3,929,-222,-94,460,213,-726,15996,0
3,930,-64,114,-198,202,-728,15988,0
3,931,-122,-58,-36,158,-735,16064,0
3,932,-234,-150,206,152,-729,16096,0
3,933,162,70,114,108,-745,16018,0
3,934,28,-368,218,124,-752,16041,0
3,935,-234,162,448,143,-784,15999,0
3,936,48,-186,148,153,-736,15977,0
3,937,-154,-714,-256,185,-791,16015,0
3,938,-132,288,632,203,-791,16081,0
3,939,216,-254,194,268,-829,16033,0
3,940,-6,-426,-452,258,-825,16045,0
3,941,-166,612,-428,228,-778,16061,0
3,942,128,-264,-336,267,-797,16049,0
3,943,186,-426,-602,280,-768,15983,0
3,944,82,22,-532,303,-817,16063,0
3,945,-132,-670,10,266,-827,16005,0
3,946,-112,-590,-520,284,-819,16000,0
3,947,-42,-556,-60,256,-833,15999,0
3,948,240,-150,332,209,-809,16077,0
3,949,-144,-220,-462,194,-757,16049,0
3,950,-64,-46,-232,171,-685,16107,0
3,951,-212,-128,528,185,-734,16019,0
3,952,-54,126,-198,201,-734,16031,0
3,953,-248,-636,194,231,-777,15951,0
3,954,-110,58,114,245,-861,15990,0
3,955,-222,-428,-210,199,-836,15967,0
3,956,-176,-92,-728,151,-838,16058,0
3,957,152,232,-174,153,-783,16053,0
3,958,170,68,-278,79,-750,16071,0
3,959,-64,-520,-612,56,-675,16029,0
3,960,-66,196,-48,73,-684,16017,0
3,961,-62,-380,-198,114,-694,16027,0
3,962,60,218,44,140,-739,15986,0
3,963,-6,324,-324,153,-810,16012,0
3,964,-20,-578,-94,156,-875,16009,0
3,965,-76,-24,-612,176,-874,16008,0
3,966,-96,-658,160,208,-801,15998,0
3,967,-8,-104,598,215,-774,16079,0
3,968,-288,-310,-128,196,-748,16074,0
3,969,-156,-578,-106,204,-743,16060,0
3,970,-144,104,632,196,-793,16030,0
3,971,4,348,44,199,-786,15954,0
3,972,48,-820,-382,192,-794,16055,0
3,973,26,-452,-266,197,-726,16045,0
3,974,-166,-128,228,170,-723,16086,0
3,975,-42,-208,-902,229,-698,16047,0
3,976,-132,242,-128,302,-669,16040,0
3,977,-158,-764,-290,341,-732,16010,0
3,978,-312,-556,-140,305,-771,16014,0
3,979,-86,-68,-36,295,-831,16012,0
3,980,-336,-186,448,239,-827,16012,0
3,981,-30,94,172,200,-796,16083,0
3,982,-122,-278,32,202,-734,16105,0
3,983,-256,-24,-452,178,-756,16091,0
3,984,-222,196,-48,196,-750,16056,0
3,985,-436,-486,10,249,-733,16006,0
3,986,194,-474,-70,249,-771,15976,0
3,987,-366,-830,206,259,-795,16002,0
3,988,-88,104,-948,271,-834,15986,0
3,989,308,-150,-290,255,-794,16040,0
3,990,-88,-128,332,179,-789,16075,0
3,991,50,360,-82,185,-780,16124,0
3,992,-188,-12,22,131,-751,16046,0
3,993,70,-36,390,139,-734,16016,0
3,994,-98,-694,-152,162,-715,15954,0
3,995,4,-762,-636,153,-723,15927,0
3,996,-130,348,-440,193,-706,15945,0
3,997,-32,-140,218,188,-705,15955,0
3,998,-122,-278,-370,175,-779,16013,0
3,999,240,-394,310,129,-782,16108,0
3,1000,-122,-266,344,158,-856,16109,0
3,1001,60,-670,-174,185,-883,16100,0
3,1002,-62,2,-232,135,-855,16029,0
3,1003,14,-116,424,184,-816,15979,0
3,1004,-8,-302,276,186,-774,16022,0
3,1005,-212,-544,-290,245,-754,16049,0
3,1006,82,92,-302,253,-728,16051,0
3,1007,2,-70,90,260,-685,16092,0
3,1008,-222,-232,-82,217,-758,16031,0
3,1009,-110,34,-36,244,-755,15979,0
3,1010,-98,-348,448,239,-721,16059,0
3,1011,-64,-266,182,235,-740,16032,0
3,1012,-76,126,-370,247,-707,16041,0
3,1013,-302,162,160,190,-707,16033,0
3,1014,-54,370,218,189,-698,16059,0
3,1015,70,-174,-878,260,-795,16022,0
3,1016,-268,-116,114,181,-812,16048,0
3,1017,86,-148,56,183,-781,16000,0
3,1018,-122,92,-486,195,-837,16024,0
3,1019,-98,-266,-302,162,-795,16092,0
3,1020,-98,-174,540,191,-775,15997,0
3,1021,284,-12,424,244,-691,16079,0
3,1022,26,-174,-348,254,-738,16022,0
3,1023,-200,370,-70,255,-767,15980,0
3,1024,-424,-496,414,225,-786,15994,0
3,1025,-40,-530,-520,225,-812,15996,0
3,1026,-200,254,-636,224,-766,16086,0
3,1027,82,-162,160,274,-739,16047,0
3,1028,-200,0,-24,224,-686,16115,0
3,1029,36,-452,-278,181,-650,16036,0
3,1030,338,312,298,184,-702,15931,0
3,1031,-200,-94,-336,135,-700,15989,0
3,1032,26,-740,-520,156,-754,15970,0
3,1033,-244,-460,-462,137,-780,16011,0
3,1034,-254,-114,620,96,-783,15998,0
3,1035,340,600,-510,102,-805,15974,0
3,1036,-122,-706,-118,132,-736,15980,0
3,1037,138,104,264,220,-791,15971,0
3,1038,-22,346,286,248,-813,16083,0
3,1039,-212,80,-578,205,-823,16063,0
4,1040,70,404,-48,59,-807,15971,0
4,1041,-426,162,-382,55,-889,15903,0
4,1042,-56,150,-140,101,-929,15951,0
4,1043,498,-140,218,74,-927,16036,0
4,1044,-200,138,378,65,-939,15987,0
4,1045,172,-416,228,66,-912,16007,0
4,1046,-74,-230,-94,95,-801,16008,0
4,1047,38,-322,-210,70,-695,15973,0
4,1048,-312,-382,472,39,-700,15954,0
4,1049,36,416,182,57,-716,15961,0
4,1050,-76,-544,436,99,-721,15948,0
4,1051,-256,-150,-152,142,-701,16018,0
4,1052,-30,-92,276,152,-637,15957,0
4,1053,-122,-162,-140,201,-690,16079,0
4,1054,46,-104,240,220,-745,16045,0
4,1055,274,-486,-118,255,-766,16093,0
4,1056,-254,-830,-486,299,-794,16097,0
4,1057,-166,-520,-48,329,-826,16078,0
4,1058,-256,162,472,330,-867,15989,0
4,1059,150,-508,-174,269,-842,16018,0
4,1060,140,-646,-14,287,-832,16001,0
4,1061,70,-612,148,284,-808,15984,0
4,1062,-74,372,148,211,-834,16047,0
4,1063,36,-36,-520,180,-822,16091,0
4,1064,-256,-220,276,115,-845,16066,0
4,1065,-42,-358,148,117,-779,16044,0
4,1066,-166,-566,-624,135,-730,16001,0
4,1067,-120,-114,-348,174,-742,15979,0
4,1068,-232,-44,-152,204,-756,15982,0
4,1069,-122,288,-498,257,-793,16044,0
4,1070,70,-266,32,229,-779,16026,0
4,1071,-178,-302,-70,212,-774,16125,0
4,1072,184,184,22,175,-788,16011,0
4,1073,-222,-416,-2,200,-793,16013,0
4,1074,-176,-772,56,215,-810,16011,0
4,1075,-156,-428,-382,210,-879,15983,0
4,1076,28,-322,-220,214,-909,16033,0
4,1077,-144,208,148,176,-932,16048,0
4,1078,126,-140,-2,132,-818,16032,0
4,1079,-344,-668,240,85,-776,16048,0
4,1080,-256,530,-302,83,-727,15979,0
4,1081,-32,-590,-266,36,-717,16008,0
4,1082,-180,-198,-566,60,-733,15999,0
4,1083,-120,24,194,87,-744,15955,0
4,1084,-8,-960,-36,113,-639,16009,0
4,1085,-74,-796,102,164,-668,16002,0
4,1086,150,-36,-452,185,-697,15967,0
4,1087,-122,-636,-302,179,-712,15961,0
4,1088,-42,-312,-94,208,-805,16004,0
4,1089,-254,-414,-198,143,-838,15988,0
4,1090,-32,-498,424,221,-845,15976,0
4,1091,14,-1006,264,213,-846,16023,0
4,1092,-56,-324,114,219,-813,16103,0
4,1093,138,-498,378,277,-800,16032,0
4,1094,-156,-694,240,252,-795,16053,0
4,1095,36,-232,-324,294,-814,16005,0
4,1096,126,474,298,383,-848,16001,0
4,1097,-198,-218,68,365,-852,16030,0
4,1098,50,-842,-774,402,-811,16086,0
4,1099,150,-174,-210,404,-772,16027,0
4,1100,36,474,-14,373,-697,16034,0
4,1101,-324,-128,-198,314,-704,16012,0
4,1102,-212,-128,-36,266,-673,15994,0
4,1103,-132,-254,102,285,-693,16053,0
4,1104,82,-140,-324,220,-723,16028,0
4,1105,-8,276,-256,298,-744,16012,0
4,1106,128,614,436,261,-802,16110,0
4,1107,-20,92,78,301,-859,15978,0
4,1108,138,-290,-152,278,-808,16037,0
4,1109,14,-266,378,273,-770,16038,0
4,1110,-156,-70,448,226,-760,16033,0
4,1111,14,196,-36,184,-761,15999,0
4,1112,-64,-82,-48,213,-753,15966,0
4,1113,4,382,-290,180,-792,15933,0
4,1114,128,-414,-128,183,-766,15959,0
4,1115,92,542,356,223,-788,16061,0
4,1116,-32,-532,102,185,-871,16024,0
4,1117,48,334,-510,129,-857,16044,0
4,1118,2,80,-394,106,-837,16045,0
4,1119,-88,58,-314,58,-790,16021,0
4,1120,240,92,-128,90,-738,15958,0
4,1121,-42,-602,-566,132,-743,16012,0
4,1122,-142,-980,228,186,-759,15989,0
4,1123,-110,208,-290,169,-763,16029,0
4,1124,208,-56,-532,169,-810,16060,0
4,1125,160,-440,-94,202,-809,16008,0
4,1126,-20,-150,-174,162,-783,16038,0
4,1127,194,-266,-462,223,-830,16039,0
4,1128,-20,68,-128,217,-810,15994,0
4,1129,138,114,-394,225,-773,16062,0
4,1130,-88,-312,-266,262,-712,15989,0
4,1131,-302,-128,852,269,-740,16000,0
4,1132,-20,-104,-14,286,-773,16043,0
4,1133,150,-358,-60,216,-764,15991,0
4,1134,-154,-68,182,253,-797,16059,0
4,1135,-54,-12,44,229,-824,15992,0
4,1136,82,-498,-60,203,-824,16070,0
4,1137,12,-324,356,212,-761,16005,0
4,1138,2,-428,-510,215,-727,16001,0
4,1139,194,230,-382,228,-699,15998,0
4,1140,-324,-70,206,248,-738,15995,0
4,1141,48,0,-244,268,-720,15963,0
4,1142,-212,-36,-278,204,-819,16039,0
4,1143,-234,634,298,209,-840,16032,0
4,1144,-30,-472,-210,147,-847,16022,0
4,1145,-268,-532,-856,122,-848,16063,0
4,1146,70,578,-94,108,-841,15970,0
4,1147,-132,126,-556,117,-779,16031,0
4,1148,-186,-426,-602,144,-768,15975,0
4,1149,-212,-82,-406,167,-734,16041,0
4,1150,104,-428,-474,170,-741,15973,0
4,1151,-280,-220,-128,191,-803,15983,0
4,1152,-268,58,78,185,-826,16027,0
4,1153,-132,-36,172,90,-875,15992,0
4,1154,4,-184,126,199,-828,16007,0
4,1155,92,-94,194,174,-773,16015,0
4,1156,92,-452,218,164,-699,16039,0
4,1157,-246,172,368,185,-715,16055,0
4,1158,-54,104,-164,100,-733,16099,0
4,1159,-6,36,160,195,-849,16047,0
4,1160,-86,152,276,220,-897,16035,0
4,1161,-268,-462,-762,231,-859,16041,0
4,1162,-100,22,-314,228,-847,16013,0
4,1163,-186,-218,1128,308,-794,16000,0
4,1164,-98,208,78,336,-788,15945,0
4,1165,184,-624,206,258,-773,16056,0
4,1166,60,-266,724,243,-771,15978,0
4,1167,-166,22,44,262,-743,16044,0
4,1168,26,-382,160,229,-851,16043,0
4,1169,-154,-206,-370,274,-890,16002,0
4,1170,106,-762,-36,330,-861,16058,0
4,1171,-188,-82,-370,331,-799,15982,0
4,1172,-64,-162,-140,274,-704,16046,0
4,1173,-110,172,-82,213,-676,15987,0
4,1174,-380,-382,-520,213,-686,16011,0
4,1175,-42,-46,-140,221,-674,16029,0
4,1176,-290,-462,332,203,-717,16092,0
4,1177,92,0,-106,233,-734,16021,0
4,1178,-280,-520,-60,274,-816,16080,0
4,1179,-156,-186,472,268,-872,16044,0
4,1180,16,-392,-428,234,-849,15969,0
4,1181,70,-382,-694,206,-859,15965,0
4,1182,216,104,252,197,-855,16004,0
4,1183,-336,450,68,143,-805,16043,0
4,1184,-166,-46,-660,155,-857,16065,0
4,1185,-74,220,-336,202,-822,16056,0
4,1186,-132,10,436,160,-822,15957,0
4,1187,150,-208,-94,157,-815,16050,0
4,1188,-188,-566,136,208,-811,16070,0
4,1189,-312,-302,528,191,-823,16043,0
4,1190,160,162,-14,97,-782,16040,0
4,1191,36,-624,-2,205,-745,16059,0
4,1192,-86,-634,206,188,-684,15946,0
4,1193,60,554,114,167,-689,16013,0
4,1194,-122,-1028,-360,238,-715,16048,0
4,1195,-166,196,32,216,-748,16100,0
4,1196,-200,-602,102,198,-746,16008,0
4,1197,-32,-544,-1004,210,-771,16055,0
4,1198,-324,242,-314,217,-782,16036,0
4,1199,-110,312,136,279,-825,15974,0
4,1200,48,-220,-210,183,-801,15967,0
4,1201,-302,150,-106,247,-796,16002,0
4,1202,-188,-116,436,239,-819,16067,0
4,1203,318,-58,-290,168,-817,16084,0
4,1204,276,-80,-118,189,-777,16126,0
4,1205,-414,-198,356,249,-819,16129,0
4,1206,-96,174,-220,274,-822,16042,0
4,1207,-42,-46,-164,223,-795,15989,0
4,1208,-200,-312,344,316,-849,15929,0
4,1209,84,244,114,266,-847,15967,0
4,1210,-108,-300,114,282,-802,15955,0
4,1211,-200,-220,78,243,-773,16080,0
4,1212,-166,-244,10,154,-689,16127,0
4,1213,-32,-498,-266,126,-700,16162,0
4,1214,26,-46,322,85,-722,16084,0
4,1215,-108,-426,-140,137,-749,15942,0
4,1216,-6,-218,-462,95,-746,15983,0
4,1217,-8,-220,-556,178,-811,15985,0
4,1218,82,-174,-14,139,-830,15986,0
4,1219,150,-358,-462,205,-831,16018,0
4,1220,36,-220,-118,198,-850,16059,0
4,1221,14,-440,78,226,-844,16050,0
4,1222,-76,-36,-856,288,-797,16062,0
4,1223,-122,-624,160,50,-793,15976,0
4,1224,36,-670,574,104,-805,15970,0
4,1225,196,164,-486,142,-860,15993,0
4,1226,84,-970,136,129,-829,16061,0
4,1227,48,-82,414,174,-852,16060,0
4,1228,354,-310,-14,78,-779,16031,0
4,1229,-100,34,172,88,-760,15994,0
4,1230,-156,-198,-24,116,-767,16007,0
4,1231,250,-290,-128,160,-778,15983,0
4,1232,-144,-1028,-118,140,-772,16001,0
4,1233,-310,-460,-498,117,-759,16081,0
4,1234,-304,-1040,-118,188,-811,16052,0
4,1235,116,-162,-682,198,-792,16013,0
4,1236,-110,-740,874,257,-821,16000,0
4,1237,60,34,194,234,-807,16048,0
4,1238,-98,-820,-474,281,-805,16134,0
4,1239,-246,-336,182,285,-823,16075,0
4,1240,70,138,424,292,-887,16007,0
4,1241,-64,-58,240,274,-896,15942,0
4,1242,-482,-220,-474,263,-900,15935,0
4,1243,36,150,172,267,-871,16024,0
4,1244,-54,542,436,284,-870,16022,0
4,1245,-212,-774,206,238,-846,16073,0
4,1246,-212,-290,-14,271,-801,16079,0
4,1247,-134,-94,276,231,-748,16043,0
4,1248,36,-104,-24,210,-763,16034,0
4,1249,-110,450,126,220,-842,16012,0
4,1250,-144,-232,78,205,-870,16035,0
4,1251,-122,-416,-532,212,-871,15962,0
4,1252,-64,404,-348,185,-806,16036,0
4,1253,84,476,182,124,-739,16043,0
4,1254,-166,716,310,185,-710,15977,0
4,1255,-324,-394,-60,164,-687,16049,0
4,1256,-338,-244,472,160,-748,16073,0
4,1257,92,150,-140,220,-828,16000,0
4,1258,-146,80,-152,225,-927,16006,0
4,1259,-212,-302,632,227,-963,16008,0
4,1260,-134,-186,56,247,-975,16036,0
4,1261,-246,34,160,207,-869,16057,0
4,1262,116,104,172,227,-790,16082,0
4,1263,70,-278,148,203,-740,16040,0
4,1264,-76,-290,-164,205,-742,16005,0
4,1265,-64,-254,448,202,-804,16028,0
4,1266,-212,196,-232,172,-839,16068,0
4,1267,-310,-242,-1016,164,-855,16067,0
4,1268,-268,-462,240,181,-894,16021,0
4,1269,-88,-46,-82,210,-845,15956,0
4,1270,-200,68,-186,192,-833,15990,0
4,1271,-122,-140,-520,208,-778,15983,0
4,1272,-336,-706,-70,200,-808,16024,0
4,1273,-142,-148,-324,202,-815,16060,0
4,1274,36,426,-660,145,-857,16127,0
4,1275,-78,-128,-360,117,-876,16030,0
4,1276,-56,68,-566,122,-900,16017,0
4,1277,-76,172,-360,120,-861,16029,0
4,1278,-20,-624,-82,166,-851,15979,0
4,1279,-30,-646,-440,204,-781,15990,0
4,1280,82,-508,-48,228,-777,15982,0
4,1281,-188,-520,218,267,-788,15978,0
4,1282,-32,-232,-198,210,-797,16033,0
4,1283,-20,-440,-140,204,-793,16039,0
4,1284,262,58,770,192,-802,16023,0
4,1285,92,392,448,255,-727,16061,0
4,1286,-200,-290,-106,244,-798,16016,0
4,1287,-124,-128,690,218,-831,15970,0
4,1288,150,-382,448,207,-895,16043,0
4,1289,16,-714,-60,161,-913,16064,0
4,1290,-156,-116,32,177,-821,16043,0
4,1291,-222,-162,-118,155,-793,16028,0
4,1292,-266,106,-648,191,-752,15978,0
4,1293,-22,46,-590,207,-739,15916,0
4,1294,184,-46,-118,308,-777,15908,0
4,1295,14,-244,-624,340,-806,15976,0
4,1296,36,658,-624,285,-767,16093,0
4,1297,-40,-368,-60,185,-785,16071,0
4,1298,206,728,-820,112,-825,16066,0
4,1299,-20,-416,414,79,-842,16016,0
5,1300,-266,324,32,252,-754,16059,0
5,1301,194,-774,22,228,-669,16049,0
5,1302,-98,276,574,322,-695,15996,0
5,1303,-42,450,-82,245,-774,16012,0
5,1304,-42,-244,-118,90,-802,16017,0
5,1305,-200,-186,528,51,-774,16076,0
5,1306,116,-94,-452,27,-748,16106,0
5,1307,-156,-208,-740,80,-709,16076,0
5,1308,-20,138,-566,206,-657,16046,0
5,1309,-8,-452,-164,308,-716,16001,0
5,1310,-88,-416,-416,346,-728,15974,0
5,1311,-258,-498,-566,315,-807,16037,0
5,1312,-200,-46,-290,273,-839,16085,0
5,1313,-134,162,-2,189,-841,16072,0
5,1314,82,-474,68,81,-811,16087,0
5,1315,150,-70,344,83,-809,16035,0
5,1316,-88,-104,22,87,-783,16028,0
5,1317,308,-266,206,131,-776,15974,0
5,1318,14,0,482,147,-690,15979,0
5,1319,-404,-590,-220,192,-703,16006,0
5,1320,94,-92,-578,179,-769,15935,0
5,1321,-414,-94,78,221,-821,16019,0
5,1322,-6,-56,-48,181,-855,16050,0
5,1323,70,-370,-682,174,-696,16055,0
5,1324,-20,-104,-70,224,-618,16091,0
5,1325,62,-138,160,247,-666,16049,0
5,1326,-378,-92,-94,218,-848,16033,0
5,1327,-200,-140,472,174,-961,15908,0
5,1328,-54,-232,-210,185,-939,15941,0
5,1329,-280,-566,136,132,-862,16016,0
5,1330,-212,-590,126,108,-783,16062,0
5,1331,92,-24,-220,122,-761,16064,0
5,1332,-200,-70,-360,109,-814,16069,0
5,1333,4,220,148,129,-813,16031,0
5,1334,-44,-12,-648,181,-748,16021,0
5,1335,-90,-174,90,210,-757,16026,0
5,1336,-64,-486,-348,256,-746,15971,0
5,1337,80,-982,448,315,-758,15949,0
5,1338,-20,-150,424,245,-764,15979,0
5,1339,-132,-520,-140,193,-760,16000,0
5,1340,-132,-254,-324,145,-750,16005,0
5,1341,-34,218,378,117,-815,16117,0
5,1342,-130,-126,182,150,-793,16080,0
5,1343,-122,-324,-70,176,-801,16021,0
5,1344,-200,218,56,277,-839,15980,0
5,1345,-40,-750,714,294,-845,15958,0
5,1346,0,-232,-382,282,-844,15951,0
5,1347,-246,-428,-82,280,-784,16113,0
5,1348,-302,-150,528,133,-766,16037,0
5,1349,150,58,148,126,-742,16099,0
5,1350,-190,-186,-106,152,-748,16064,0
5,1351,60,-140,10,173,-776,16018,0
5,1352,-110,312,424,271,-784,15984,0
5,1353,12,-324,-786,313,-798,15947,0
5,1354,138,542,-82,332,-704,15985,0
5,1355,-76,-174,-24,404,-682,16060,0
5,1356,-358,10,-602,405,-746,16059,0
5,1357,-166,58,-210,411,-789,16078,0
5,1358,-74,-368,610,393,-852,16022,0
5,1359,386,542,90,310,-871,16006,0
5,1360,-198,-506,322,225,-857,15997,0
5,1361,-268,-128,68,247,-759,15949,0
5,1362,-76,-244,22,12,-748,15978,0
5,1363,-334,-10,102,-15,-768,16063,0
5,1364,-132,-520,402,-92,-792,16018,0
5,1365,-470,-244,126,-82,-897,15977,0
5,1366,-122,-150,-128,-42,-894,16020,0
5,1367,60,22,-70,-59,-892,16018,0
5,1368,12,-442,100,43,-905,16014,0
5,1369,332,-334,-118,92,-846,16000,0
5,1370,82,-670,90,76,-863,16059,0
5,1371,-156,68,240,115,-845,16100,0
5,1372,-358,242,78,91,-871,16080,0
5,1373,-20,-486,-36,97,-900,16019,0
5,1374,60,682,-256,111,-833,16022,0
5,1375,26,-70,-186,209,-778,16015,0
5,1376,-112,-290,160,252,-758,16059,0
5,1377,-370,0,194,267,-757,16033,0
5,1378,-74,-588,240,253,-815,16027,0
5,1379,2,-162,228,203,-792,15999,0
5,1380,34,-254,540,157,-815,16010,0
5,1381,-54,196,-14,152,-797,15981,0
5,1382,14,-428,44,125,-832,15979,0
5,1383,0,138,-118,159,-771,16061,0
5,1384,-156,-566,-174,196,-801,16054,0
5,1385,-132,-94,494,171,-780,16132,0
5,1386,206,46,276,212,-792,16020,0
5,1387,26,-198,160,255,-773,16042,0
5,1388,-210,348,-266,298,-786,16054,0
5,1389,-156,-162,44,342,-765,15997,0
5,1390,-110,-370,-706,373,-780,16020,0
5,1391,14,162,-152,434,-785,16040,0
5,1392,-560,-186,472,391,-770,16009,0
5,1393,-234,114,-48,325,-811,16006,0
5,1394,82,208,-244,247,-781,16044,0
5,1395,-122,254,460,201,-764,16092,0
5,1396,-198,116,298,202,-758,16068,0
5,1397,-124,114,-566,211,-767,16038,0
5,1398,-32,-24,-474,234,-791,15984,0
5,1399,-62,-184,22,245,-818,15991,0
5,1400,-66,-208,-682,213,-819,16013,0
5,1401,36,242,-266,191,-815,16092,0
5,1402,-178,-174,552,96,-780,16098,0
5,1403,-76,312,-82,112,-833,16035,0
5,1404,-302,-208,-324,112,-808,16056,0
5,1405,-280,184,-60,90,-819,15944,0
5,1406,-8,-150,390,115,-775,15984,0
5,1407,-156,-752,-636,142,-822,16000,0
5,1408,84,2,-394,96,-770,16043,0
5,1409,-346,-382,228,88,-782,16063,0
5,1410,-234,-198,-486,72,-840,15972,0
5,1411,-10,358,-244,64,-867,16108,0
5,1412,-346,358,286,67,-860,16045,0
5,1413,38,24,-36,137,-815,16014,0
5,1414,150,-774,-360,147,-816,15973,0
5,1415,-256,172,264,179,-834,15960,0
5,1416,-144,114,32,202,-850,16022,0
5,1417,-132,-428,-520,190,-845,16047,0
5,1418,260,46,-532,140,-841,16078,0
5,1419,-122,-140,356,157,-797,16029,0
5,1420,2,-232,-510,181,-803,16062,0
5,1421,-66,46,68,190,-784,15993,0
5,1422,-8,-660,322,208,-752,16002,0
5,1423,-212,-140,-440,269,-747,16057,0
5,1424,-88,-220,148,265,-767,16102,0
5,1425,-144,-324,368,235,-772,16030,0
5,1426,-166,358,-140,294,-810,16018,0
5,1427,2,-36,56,246,-817,16038,0
5,1428,14,-150,276,266,-801,16073,0
5,1429,-190,312,-82,254,-796,16063,0
5,1430,-188,-498,-1062,256,-801,15983,0
5,1431,-54,10,-210,230,-799,15945,0
5,1432,116,80,126,252,-801,15984,0
5,1433,-64,-520,-452,231,-829,16013,0
5,1434,-40,-922,-36,238,-850,16059,0
5,1435,-188,-82,-198,199,-809,16036,0
5,1436,36,-70,32,137,-806,16081,0
5,1437,-290,322,218,84,-811,16105,0
5,1438,-76,80,310,93,-767,16014,0
5,1439,296,150,182,95,-808,16017,0
5,1440,60,-578,-406,104,-790,15940,0
5,1441,-246,312,-958,136,-789,15959,0
5,1442,14,126,-370,91,-847,16003,0
5,1443,186,372,-128,131,-818,16032,0
5,1444,126,-302,10,167,-770,16003,0
5,1445,-256,542,240,185,-802,16102,0
5,1446,-112,520,-70,208,-846,16113,0
5,1447,-200,-556,136,206,-877,16038,0
5,1448,104,-290,228,157,-905,16006,0
5,1449,14,80,228,120,-862,16045,0
5,1450,-326,-590,-82,119,-843,16039,0
5,1451,92,312,264,169,-802,16010,0
5,1452,82,22,632,141,-797,16059,0
5,1453,-426,-244,-256,176,-758,15990,0
5,1454,92,842,-602,170,-755,16055,0
5,1455,38,116,298,188,-746,16008,0
5,1456,172,392,-60,236,-818,15985,0
5,1457,70,-290,-314,250,-811,16072,0
5,1458,-188,230,724,188,-844,16050,0
5,1459,2,-474,264,200,-851,16092,0
5,1460,82,-232,424,199,-824,16062,0
5,1461,-44,358,-118,179,-827,16055,0
5,1462,250,438,-174,171,-791,15970,0
5,1463,-110,-382,-660,171,-782,16057,0
5,1464,82,-174,-370,213,-772,15970,0
5,1465,-220,232,-440,249,-802,16061,0
5,1466,-88,34,-510,211,-824,16032,0
5,1467,-166,10,-14,253,-846,16056,0
5,1468,286,-34,898,203,-818,15995,0
5,1469,82,80,574,214,-823,15951,0
5,1470,-290,-290,378,181,-780,16094,0
5,1471,16,532,-36,157,-801,16092,0
5,1472,-166,92,194,186,-837,16018,0
5,1473,-90,-254,-382,232,-813,15990,0
5,1474,206,-140,-140,173,-813,16035,0
5,1475,-346,-1180,-48,160,-802,15994,0
5,1476,-98,334,-566,154,-847,16019,0
5,1477,-324,-694,102,150,-836,15962,0
5,1478,-268,172,56,169,-828,16098,0
5,1479,-108,-184,264,174,-776,16020,0
5,1480,-256,-924,126,199,-796,16043,0
5,1481,-268,288,356,223,-795,15989,0
5,1482,-142,-392,-382,212,-839,15986,0
5,1483,26,-752,-394,180,-834,15976,0
5,1484,36,68,68,169,-829,15991,0
5,1485,-166,-394,-428,144,-800,16102,0
5,1486,-124,-302,-452,115,-789,16085,0
5,1487,-222,508,-382,147,-766,16064,0
5,1488,-134,-752,136,135,-778,16032,0
5,1489,138,196,-256,197,-739,15991,0
5,1490,184,-58,172,205,-812,16005,0
5,1491,-198,-762,540,204,-840,15981,0
5,1492,26,-266,356,223,-879,16002,0
5,1493,-98,254,-612,255,-843,16063,0
5,1494,-256,10,-302,205,-829,16058,0
5,1495,46,-312,-186,218,-775,16061,0
5,1496,82,-24,-348,158,-790,16023,0
5,1497,-34,-382,-474,211,-773,15958,0
5,1498,-110,-324,-244,247,-861,16072,0
5,1499,398,46,44,237,-855,15990,0
5,1500,-8,-198,286,219,-854,16047,0
5,1501,160,-58,574,210,-811,16059,0
5,1502,-110,80,-936,175,-803,15996,0
5,1503,116,-428,-278,169,-775,16067,0
5,1504,-42,184,828,166,-780,16011,0
5,1505,90,-428,-302,162,-779,16019,0
5,1506,-122,-890,-220,126,-787,15993,0
5,1507,-66,104,-140,121,-725,16038,0
5,1508,-188,-358,-462,116,-759,16016,0
5,1509,-20,-278,194,145,-787,16008,0
5,1510,-336,-198,-174,158,-756,16013,0
5,1511,126,-348,-118,198,-792,16053,0
5,1512,-132,-198,-590,302,-814,16043,0
5,1513,-62,-402,10,294,-797,16057,0
5,1514,-98,-140,-94,281,-861,15989,0
5,1515,-166,208,-602,183,-867,15984,0
5,1516,-64,312,322,152,-834,16022,0
5,1517,16,-392,610,139,-822,16046,0
5,1518,-42,-208,-94,121,-797,16032,0
5,1519,-54,-336,-60,101,-780,15995,0
5,1520,-76,-266,252,159,-785,16011,0
5,1521,-100,150,56,176,-786,16003,0
5,1522,158,-162,-186,196,-781,16008,0
5,1523,126,588,-220,171,-798,15992,0
5,1524,-88,-12,-406,210,-768,16034,0
5,1525,70,-70,-798,184,-843,16053,0
5,1526,92,-162,-440,187,-773,16065,0
5,1527,172,150,44,158,-812,16042,0
5,1528,-6,-160,-1074,151,-855,16056,0
5,1529,12,20,-708,170,-804,16026,0
5,1530,-166,-278,-164,135,-818,16029,0
5,1531,216,-128,-82,146,-772,16041,0
5,1532,-98,162,-370,224,-763,15992,0
5,1533,-178,-336,-244,251,-779,16024,0
5,1534,-132,-36,-578,217,-772,15973,0
5,1535,-76,-556,298,301,-818,16005,0
5,1536,-98,-104,472,208,-817,15985,0
5,1537,82,-150,-278,165,-808,16044,0
5,1538,70,-162,-336,187,-836,16046,0
5,1539,-8,-416,276,161,-833,16064,0
5,1540,14,-752,218,139,-837,16059,0
5,1541,26,-312,160,129,-793,16005,0
5,1542,-156,-370,494,191,-770,16020,0
5,1543,82,392,-164,204,-776,16055,0
5,1544,-62,-518,-256,216,-777,15982,0
5,1545,-178,600,-48,225,-796,15976,0
5,1546,124,-104,172,200,-836,16069,0
5,1547,248,-486,-2,201,-832,16033,0
5,1548,-88,-266,-302,204,-820,16050,0
5,1549,-110,-104,-360,184,-776,15995,0
5,1550,-424,-380,-602,176,-776,16041,0
5,1551,-78,-694,-210,202,-780,16017,0
5,1552,34,150,-94,242,-814,16011,0
5,1553,-244,-206,-1028,257,-823,16028,0
5,1554,-280,-382,-256,226,-789,16039,0
5,1555,-144,126,714,216,-811,16052,0
5,1556,150,-94,-48,208,-782,16038,0
5,1557,92,-786,10,159,-779,16069,0
5,1558,-10,-150,310,154,-814,16000,0
5,1559,-8,58,540,192,-832,15970,0
6,1560,-346,-820,102,217,-824,16031,0
6,1561,138,138,494,222,-822,16058,0
6,1562,34,-358,-302,214,-811,15993,0
6,1563,102,-290,-452,169,-804,16078,0
6,1564,46,670,-266,152,-800,16049,0
6,1565,138,92,32,161,-793,15969,0
6,1566,104,-46,-174,156,-775,15940,0
6,1567,-32,474,286,210,-806,15924,0
6,1568,-336,-24,-532,250,-800,15988,0
6,1569,-22,646,-716,251,-859,16016,0
6,1570,14,438,-244,227,-822,16059,0
6,1571,-312,-324,-118,218,-803,16041,0
6,1572,170,58,-706,234,-805,16077,0
6,1573,60,126,-324,178,-745,16022,0
6,1574,-42,-370,414,196,-756,16013,0
6,1575,-268,-12,-82,172,-787,16023,0
6,1576,-110,-290,172,123,-758,16018,0
6,1577,12,-58,494,106,-765,16039,0
6,1578,-282,-254,-198,85,-753,16066,0
6,1579,-222,-140,-198,128,-756,16079,0
6,1580,-256,-440,552,147,-803,15996,0
6,1581,-88,-94,90,162,-767,16005,0
6,1582,-190,-290,-566,225,-794,16055,0
6,1583,14,-266,-14,258,-829,15999,0
6,1584,-144,-220,194,214,-849,15972,0
6,1585,-156,-682,528,213,-787,16013,0
6,1586,-88,-12,206,221,-813,16055,0
6,1587,-32,-150,-174,184,-807,16031,0
6,1588,70,-520,-706,157,-802,16045,0
6,1589,104,692,-394,173,-802,16011,0
6,1590,-246,-12,-140,237,-790,15966,0
6,1591,-156,-532,-210,233,-783,16037,0
6,1592,-246,-82,-210,270,-788,16071,0
6,1593,-222,-636,-60,242,-826,16029,0
6,1594,92,-474,-808,232,-805,16120,0
6,1595,-166,-46,206,234,-757,16081,0
6,1596,172,104,218,204,-737,16067,0
6,1597,-20,-312,-694,166,-739,16014,0
6,1598,262,358,-266,239,-771,16009,0
6,1599,-302,92,852,234,-776,15983,0
6,1600,2,322,-174,235,-819,16087,0
6,1601,-234,-636,-24,182,-807,16007,0
6,1602,158,138,-440,158,-825,16035,0
6,1603,36,-254,10,159,-854,16041,0
6,1604,-324,-752,-416,125,-828,16057,0
6,1605,-88,-36,-452,113,-825,16030,0
6,1606,-88,-428,-520,164,-821,16055,0
6,1607,-560,-278,-878,194,-831,15953,0
6,1608,-8,-348,-256,204,-791,16001,0
6,1609,-132,-774,240,190,-820,16032,0
6,1610,-20,-128,-520,198,-825,16019,0
6,1611,-248,-82,-590,137,-823,16059,0
6,1612,-202,46,-152,115,-849,16087,0
6,1613,216,484,-152,119,-837,16059,0
6,1614,-54,-416,102,136,-760,16041,0
6,1615,-98,58,378,143,-707,15949,0
6,1616,14,0,-106,163,-693,15989,0
6,1617,150,-612,-70,188,-718,15993,0
6,1618,-42,104,518,192,-779,15969,0
6,1619,-370,242,-94,176,-877,15983,0
6,1620,-156,-82,136,136,-926,16056,0
6,1621,126,172,10,153,-930,16108,0
6,1622,46,-626,-316,180,-872,16053,0
6,1623,116,-740,-186,241,-835,16092,0
6,1624,-40,70,298,263,-764,16035,0
6,1625,296,-150,206,296,-798,16020,0
6,1626,-54,-312,-370,269,-817,15958,0
6,1627,-200,634,56,270,-813,15957,0
6,1628,60,-36,436,200,-844,16061,0
6,1629,-98,80,-786,156,-813,16120,0
6,1630,36,34,-394,143,-754,15994,0
6,1631,-188,-556,264,161,-767,15988,0
6,1632,-338,162,-140,195,-777,15968,0
6,1633,184,-36,44,174,-803,15984,0
6,1634,-256,-220,1002,185,-873,16024,0
6,1635,-178,-1168,-324,195,-883,16002,0
6,1636,-56,-150,160,193,-812,16045,0
6,1637,-54,-36,102,183,-762,16047,0
6,1638,104,-128,-198,172,-785,16029,0
6,1639,184,-820,160,161,-808,16032,0
6,1640,26,312,-256,154,-828,16043,0
6,1641,388,-184,574,135,-803,16053,0
6,1642,-404,-278,-382,137,-820,16031,0
6,1643,-258,-324,586,185,-796,16042,0
6,1644,150,-324,-256,217,-785,16027,0
6,1645,-426,-244,-716,170,-803,15930,0
6,1646,-42,-706,160,224,-848,15946,0
6,1647,60,-12,-164,207,-890,15981,0
6,1648,-336,-462,-566,183,-880,15964,0
6,1649,60,750,-82,168,-866,16046,0
6,1650,92,-370,114,160,-835,16042,0
6,1651,-54,346,44,150,-801,16043,0
6,1652,28,-276,90,146,-776,16059,0
6,1653,194,-150,748,157,-769,16009,0
6,1654,-64,-150,-428,222,-777,15972,0
6,1655,92,114,56,241,-774,16004,0
6,1656,116,358,506,234,-759,15971,0
6,1657,2,276,182,226,-804,16012,0
6,1658,-584,218,448,249,-872,16048,0
6,1659,-98,150,472,215,-870,16098,0
6,1660,14,370,-128,235,-840,16116,0
6,1661,-42,-520,-94,174,-801,16019,0
6,1662,-88,-128,518,196,-758,16041,0
6,1663,60,-278,-348,206,-747,15975,0
6,1664,-66,10,-520,186,-755,15979,0
6,1665,70,438,-60,232,-823,15951,0
6,1666,-124,136,-120,190,-841,16060,0
6,1667,208,2,-106,136,-852,16067,0
6,1668,338,786,-174,147,-836,16056,0
6,1669,-292,-208,136,110,-875,16080,0
6,1670,-42,-544,-878,103,-849,16092,0
6,1671,-66,10,-948,128,-790,15989,0
6,1672,-22,78,-96,174,-772,15966,0
6,1673,-8,208,-152,279,-768,16001,0
6,1674,-54,68,-510,277,-807,15965,0
6,1675,-32,-716,194,307,-878,15991,0
6,1676,70,-254,322,208,-880,16002,0
6,1677,-268,-370,126,142,-859,15961,0
6,1678,296,-46,-14,119,-859,16000,0
6,1679,-312,-116,-406,66,-809,15982,0
6,1680,-246,-532,-220,9,-743,16015,0
6,1681,-336,-312,598,22,-793,16031,0
6,1682,-8,288,252,27,-820,16044,0
6,1683,-20,-508,252,55,-816,15967,0
6,1684,14,-706,724,78,-819,15996,0
6,1685,-32,358,68,120,-788,16019,0
6,1686,124,-370,-232,164,-794,16081,0
6,1687,194,-370,78,172,-824,16023,0
6,1688,-122,46,56,302,-823,15981,0
6,1689,262,-1040,252,350,-825,16014,0
6,1690,-270,-612,564,328,-799,15999,0
6,1691,2,276,194,292,-897,16050,0
6,1692,2,0,-94,209,-869,16102,0
6,1693,-90,-140,172,181,-857,16147,0
6,1694,-8,-220,402,151,-808,16101,0
6,1695,-188,-810,-210,168,-780,16113,0
6,1696,-142,-310,390,243,-777,16018,0
6,1697,-336,380,-336,223,-794,16006,0
6,1698,-122,312,-786,273,-818,15982,0
6,1699,-90,358,-198,291,-823,16014,0
6,1700,-460,-198,-24,283,-856,15947,0
6,1701,-110,-868,-106,193,-830,16018,0
6,1702,172,508,-370,145,-776,16022,0
6,1703,-266,-958,-220,101,-710,16022,0
6,1704,-110,-24,-774,80,-704,15991,0
6,1705,-110,-394,218,77,-726,16035,0
6,1706,-78,-948,228,60,-723,16002,0
6,1707,26,-266,-716,159,-710,16049,0
6,1708,-156,-416,194,187,-767,16068,0
6,1709,36,-578,678,213,-816,16061,0
6,1710,-40,-380,-2,264,-844,16016,0
6,1711,-98,520,-232,255,-857,15983,0
6,1712,182,-12,206,293,-845,16004,0
6,1713,14,692,-256,235,-862,16083,0
6,1714,-76,-462,-2,196,-863,16119,0
6,1715,138,-24,-370,167,-866,16120,0
6,1716,-8,0,-706,174,-824,16110,0
6,1717,-394,-140,-820,102,-811,15992,0
6,1718,216,-104,-486,105,-794,16020,0
6,1719,-34,-358,228,153,-805,15985,0
6,1720,-20,-94,-428,172,-776,15945,0
6,1721,240,692,-198,173,-756,16003,0
6,1722,-144,80,-278,153,-746,16027,0
6,1723,-178,-220,182,193,-743,16068,0
6,1724,116,104,322,211,-712,16013,0
6,1725,90,-612,264,203,-750,16022,0
6,1726,216,-602,-566,249,-784,15980,0
6,1727,-178,-878,32,259,-772,15917,0
6,1728,-166,22,678,248,-815,15980,0
6,1729,-144,-254,-2,194,-798,16000,0
6,1730,-124,-348,-612,134,-859,16082,0
6,1731,-54,288,194,81,-815,16126,0
6,1732,-144,-740,436,113,-803,16040,0
6,1733,-114,-788,400,101,-785,15996,0
6,1734,-22,126,506,167,-793,15983,0
6,1735,150,-336,102,189,-801,16025,0
6,1736,-8,-70,-706,262,-827,16033,0
6,1737,70,92,-82,216,-844,16052,0
6,1738,136,-416,-462,201,-840,16077,0
6,1739,-348,-2,-26,133,-809,16029,0
6,1740,34,126,-360,136,-810,16040,0
6,1741,-270,-370,160,103,-796,16057,0
6,1742,-42,-416,-48,116,-786,15969,0
6,1743,-124,-94,240,192,-860,16062,0
6,1744,-372,-960,264,194,-852,16031,0
6,1745,-164,-102,632,249,-818,16099,0
6,1746,-122,-764,-140,238,-733,16051,0
6,1747,342,-496,540,266,-721,15919,0
6,1748,-8,-358,-324,230,-702,15978,0
6,1749,-166,-82,44,256,-723,16023,0
6,1750,-358,-266,286,223,-807,16060,0
6,1751,-98,208,-106,184,-851,15965,0
6,1752,-256,-670,-324,158,-832,16040,0
6,1753,24,80,-2,96,-782,16054,0
6,1754,-8,-532,-370,119,-748,15983,0
6,1755,-302,-348,-660,204,-783,16051,0
6,1756,102,150,-486,198,-777,16029,0
6,1757,-188,-94,276,167,-882,15983,0
6,1758,274,218,-48,228,-865,15949,0
6,1759,82,426,-140,196,-859,16001,0
6,1760,-178,208,136,162,-784,15974,0
6,1761,-200,-532,-382,135,-784,16001,0
6,1762,-74,128,-106,211,-744,16035,0
6,1763,-54,-440,218,226,-766,16030,0
6,1764,-314,390,-418,185,-825,16044,0
6,1765,-144,-474,298,196,-841,16077,0
6,1766,-64,-70,714,248,-843,15992,0
6,1767,14,126,90,217,-797,16034,0
6,1768,-156,34,-210,186,-759,16047,0
6,1769,-100,-36,-2,231,-709,16016,0
6,1770,-64,58,-174,235,-713,16016,0
6,1771,-358,-440,-186,250,-740,15981,0
6,1772,-54,-104,-94,192,-787,15981,0
6,1773,-178,-336,-256,241,-863,15997,0
6,1774,-8,-302,-694,209,-862,16054,0
6,1775,2,46,-336,133,-906,16046,0
6,1776,-112,-278,228,104,-851,16087,0
6,1777,92,-404,-382,109,-826,16029,0
6,1778,-66,104,-2,123,-752,15971,0
6,1779,-144,-728,-256,152,-769,15969,0
6,1780,-290,184,56,177,-748,16030,0
6,1781,138,-416,-198,160,-803,16034,0
6,1782,298,-22,252,210,-865,16050,0
6,1783,-112,-302,-82,163,-828,16058,0
6,1784,-144,-150,-278,137,-828,16071,0
6,1785,-166,230,714,193,-778,16060,0
6,1786,104,496,620,179,-739,16035,0
6,1787,24,-278,126,222,-687,16006,0
6,1788,26,-24,656,235,-709,16011,0
6,1789,92,-36,344,253,-767,15977,0
6,1790,-198,-496,-36,205,-782,15999,0
6,1791,36,254,552,242,-834,16065,0
6,1792,2,-58,218,250,-864,16093,0
6,1793,60,-474,-566,164,-889,16050,0
6,1794,62,-392,-118,225,-928,16144,0
6,1795,-64,-566,-428,199,-905,15987,0
6,1796,-100,-428,-462,251,-807,15975,0
6,1797,104,230,-382,208,-774,15978,0
6,1798,70,114,-198,288,-736,15940,0
6,1799,-98,92,-752,300,-745,15988,0
6,1800,60,242,-324,297,-818,16053,0
6,1801,-280,172,344,173,-808,16011,0
6,1802,126,-24,-36,151,-761,16009,0
6,1803,-132,322,-314,128,-738,16051,0
6,1804,-122,-624,90,124,-737,16020,0
6,1805,-54,184,126,184,-709,16012,0
6,1806,364,276,78,164,-743,16064,0
6,1807,-268,126,714,147,-719,16012,0
6,1808,138,-46,-186,155,-728,16084,0
6,1809,90,-312,44,176,-762,16093,0
6,1810,104,-428,-14,221,-807,15987,0
6,1811,-144,-174,332,154,-845,16010,0
6,1812,-200,-706,264,155,-883,15988,0
6,1813,-76,-370,424,151,-929,16027,0
6,1814,-144,-140,-428,134,-916,16033,0
6,1815,-158,-648,136,137,-869,16037,0
6,1816,-336,-336,148,140,-804,16016,0
6,1817,418,126,126,159,-778,16014,0
6,1818,2,-636,160,212,-795,16007,0
6,1819,-134,-520,424,252,-810,16030,0
7,1820,792,1202,-14,407,760,15903,0
7,1821,338,1328,-360,-201,986,16002,0
7,1822,206,104,-266,-497,1056,16016,0
7,1823,126,-186,102,-615,1068,16008,0
7,1824,-200,-370,-118,-762,1127,15961,0
7,1825,-662,-36,-118,-741,1078,15910,0
7,1826,-22,-336,102,-567,880,15902,0
7,1827,26,184,-174,-475,631,15953,0
7,1828,26,-70,264,-368,537,16096,0
7,1829,194,162,794,-335,633,16198,0
7,1830,80,-382,414,-273,853,16195,0
7,1831,-144,-578,160,-266,1093,15953,0
7,1832,-54,-660,390,-151,1161,15889,0
7,1833,-246,-324,-70,-75,1050,15697,0
7,1834,-312,-1052,-198,-139,882,15840,0
7,1835,-132,-358,-82,-100,727,15897,0
7,1836,-166,-94,-210,-258,728,16088,0
7,1837,-462,-70,-462,-350,849,16231,0
7,1838,-110,530,-752,-388,977,16135,0
7,1839,-188,-556,322,-310,966,16097,0
7,1840,-482,-602,-394,-204,891,15968,0
7,1841,-110,-162,-694,-107,794,15927,0
7,1842,-8,-508,-256,-22,733,15967,0
7,1843,158,462,-602,-67,746,16038,0
7,1844,-178,46,-244,-170,751,16069,0
7,1845,-348,-382,528,-311,817,16106,0
7,1846,-268,104,-266,-411,831,16103,0
7,1847,-156,-416,-256,-439,884,16054,0
7,1848,-538,-198,-244,-428,907,16104,0
7,1849,-180,-452,182,-316,747,16078,0
7,1850,-382,-648,182,-178,638,16195,0
7,1851,60,-428,610,-172,556,16165,0
7,1852,-132,358,-774,-295,665,16127,0
7,1853,-88,380,-670,-346,739,16021,0
7,1854,82,208,322,-487,865,15957,0
7,1855,14,68,-14,-667,891,15938,0
7,1856,60,-94,10,-667,885,15907,0
7,1857,14,542,-556,-593,837,15944,0
7,1858,-98,-566,-128,-581,831,15957,0
7,1859,14,-162,-14,-468,771,15980,0
7,1860,116,68,102,-341,705,16031,0
7,1861,-348,-254,-140,-303,709,16083,0
7,1862,70,-440,-498,-377,692,16151,0
7,1863,70,334,-348,-393,719,16128,0
7,1864,-258,-544,286,-540,770,16050,0
7,1865,26,126,-232,-567,807,15953,0
7,1866,-44,-348,-164,-511,793,15991,0
7,1867,158,162,218,-402,765,15870,0
7,1868,-246,634,114,-305,743,15920,0
7,1869,-256,-636,126,-258,779,15985,0
7,1870,-394,-624,482,-224,767,16004,0
7,1871,60,-186,264,-251,795,15963,0
7,1872,-470,-544,-198,-302,857,15956,0
7,1873,14,796,-140,-362,867,15978,0
7,1874,26,80,194,-406,810,16037,0
7,1875,-10,-774,-140,-463,841,16013,0
7,1876,-66,114,22,-452,854,16062,0
7,1877,34,-60,-50,-393,920,16044,0
7,1878,46,-486,448,-281,898,15979,0
7,1879,-42,288,-60,-212,901,15935,0
7,1880,-370,-1110,172,-142,807,15887,0
7,1881,-8,-116,322,-192,749,15988,0
7,1882,-222,-140,460,-235,689,15997,0
7,1883,-168,-46,402,-292,760,15925,0
7,1884,-346,-336,-48,-455,899,15949,0
7,1885,-436,-624,-24,-492,904,15862,0
7,1886,-404,-508,414,-413,947,15835,0
7,1887,-676,-312,368,-368,927,15839,0
7,1888,-528,-902,-948,-266,906,15727,0
7,1889,-934,-82,-278,-188,876,15775,0
7,1890,-1068,-786,-2,-180,831,15934,0
7,1891,-934,-58,-186,-185,624,16090,0
7,1892,-504,-254,-186,-182,349,16256,0
7,1893,-470,-786,114,-159,137,16557,0
7,1894,-74,106,-128,-227,177,16588,0
7,1895,-282,254,-82,-406,365,16504,0
7,1896,-132,-544,368,-545,646,16213,0
7,1897,-112,138,-360,-508,781,15954,0
7,1898,-246,-302,-220,-415,761,15883,0
7,1899,-190,92,368,-308,670,15894,0
7,1900,-122,-302,206,-218,525,15941,0
7,1901,-222,-394,-394,-175,463,16082,0
7,1902,-88,392,32,-246,452,16136,0
7,1903,92,162,194,-333,450,16223,0
7,1904,2,-12,-348,-353,557,16129,0
7,1905,282,634,136,-419,672,16049,0
7,1906,-88,218,-266,-396,753,15967,0
7,1907,-178,-612,114,-401,738,15910,0
7,1908,-122,-186,-360,-395,666,15915,0
7,1909,-88,-532,448,-361,571,15945,0
7,1910,-90,-244,-394,-349,453,16070,0
7,1911,-236,-232,-174,-320,485,16171,0
7,1912,70,150,378,-288,576,16135,0
7,1913,102,450,136,-262,672,16046,0
7,1914,124,346,-24,-288,764,16022,0
7,1915,308,-208,-118,-244,758,15907,0
7,1916,262,68,78,-212,703,15877,0
7,1917,-178,-612,-14,-253,579,15911,0
7,1918,104,-244,424,-381,588,15950,0
7,1919,-88,-36,-94,-445,577,16076,0
7,1920,138,-416,-360,-437,583,16193,0
7,1921,126,762,172,-457,637,16153,0
7,1922,-144,-174,286,-327,696,16044,0
7,1923,-76,-12,-220,-280,708,15988,0
7,1924,184,-82,-314,-205,691,15943,0
7,1925,-98,-648,-128,-172,647,15968,0
7,1926,-166,-532,-348,-211,661,16023,0
7,1927,-32,22,206,-268,615,16049,0
7,1928,-32,520,114,-362,676,16134,0
7,1929,-34,240,-718,-366,709,16080,0
7,1930,-358,358,-348,-308,746,16055,0
7,1931,-180,-82,298,-247,770,16061,0
7,1932,-484,-150,-60,-262,671,15962,0
7,1933,-448,-960,-152,-269,615,16015,0
7,1934,-188,-382,332,-296,576,15947,0
7,1935,16,94,-278,-410,576,16021,0
7,1936,-54,-844,228,-439,676,16072,0
7,1937,-130,164,182,-394,726,16089,0
7,1938,-236,-220,-164,-278,706,16076,0
7,1939,216,-578,-786,-296,676,16007,0
7,1940,-234,104,276,-297,613,15972,0
7,1941,-214,-430,88,-304,587,16020,0
7,1942,92,208,-440,-304,611,15992,0
7,1943,-32,184,-532,-353,620,16086,0
7,1944,-154,70,378,-355,656,16092,0
7,1945,-178,126,-14,-383,627,16073,0
7,1946,-156,34,-48,-344,558,16063,0
7,1947,-32,-440,344,-349,604,16046,0
7,1948,0,-186,114,-341,636,16023,0
7,1949,2,-244,22,-343,711,16012,0
7,1950,-336,-220,68,-387,751,16030,0
7,1951,-144,138,-140,-366,687,16040,0
7,1952,-166,-382,-510,-344,631,16054,0
7,1953,160,-404,206,-350,633,16092,0
7,1954,-156,-648,-440,-347,588,16049,0
7,1955,0,-370,-820,-342,599,16064,0
7,1956,-132,-416,68,-255,673,16081,0
7,1957,194,92,286,-279,699,15997,0
7,1958,-144,68,-578,-276,696,15934,0
7,1959,228,126,-324,-245,700,15934,0
7,1960,-236,-116,586,-223,604,16094,0
7,1961,-54,-70,218,-336,578,16177,0
7,1962,-100,-198,-314,-356,567,16216,0
7,1963,-292,162,-128,-386,579,16152,0
7,1964,26,-220,-382,-385,662,16034,0
7,1965,184,-960,-198,-314,719,15916,0
7,1966,-166,126,-498,-212,737,15895,0
7,1967,-222,-428,-510,-220,696,15946,0
7,1968,-90,-12,-244,-226,670,15997,0
7,1969,-278,-588,-278,-265,595,15972,0
7,1970,-76,-128,424,-282,564,15991,0
7,1971,116,80,-186,-352,618,16028,0
7,1972,-246,-150,102,-378,669,16043,0
7,1973,-56,370,552,-365,673,16093,0
7,1974,48,-394,194,-347,706,16029,0
7,1975,-34,-682,-118,-311,735,16035,0
7,1976,-110,10,286,-291,638,16006,0
7,1977,-86,-80,322,-307,615,16022,0
7,1978,-302,-266,-660,-296,630,16023,0
7,1979,-280,-58,-394,-311,663,16064,0
7,1980,-20,-1110,-14,-387,701,16055,0
7,1981,-88,-670,-210,-394,731,16098,0
7,1982,-112,-232,-428,-389,724,16059,0
7,1983,70,-612,-602,-361,696,16121,0
7,1984,-20,-798,-706,-321,687,16024,0
7,1985,-146,-486,-660,-243,648,16029,0
7,1986,-42,-716,344,-264,623,15954,0
7,1987,172,-266,-360,-238,601,15969,0
7,1988,-54,-104,506,-292,628,15941,0
7,1989,-90,424,596,-381,651,16005,0
7,1990,-30,256,44,-434,665,16120,0
7,1991,-200,-474,310,-438,629,16084,0
7,1992,26,-36,32,-418,607,16136,0
7,1993,-180,92,-278,-446,648,16022,0
7,1994,-64,-128,-728,-343,695,15973,0
7,1995,150,750,344,-305,715,15881,0
7,1996,-54,-186,126,-261,665,15971,0
7,1997,160,-404,-924,-215,618,16081,0
7,1998,-20,46,-186,-199,566,16172,0
7,1999,84,-310,-314,-296,597,16084,0
7,2000,14,68,-566,-418,644,16079,0
7,2001,-200,-602,32,-459,680,16019,0
7,2002,-156,670,332,-480,654,15993,0
7,2003,-256,208,-302,-472,635,15954,0
7,2004,-42,22,206,-383,673,16003,0
7,2005,90,-280,88,-271,673,16037,0
7,2006,230,324,-152,-235,666,16026,0
7,2007,228,-404,10,-184,685,16069,0
7,2008,2,-150,-14,-251,659,16088,0
7,2009,-42,46,-186,-223,610,16049,0
7,2010,-110,-232,-82,-276,658,16024,0
7,2011,-74,-252,136,-271,699,15967,0
7,2012,140,-542,56,-345,692,15949,0
7,2013,-42,312,-382,-329,669,15909,0
7,2014,-124,646,-210,-355,585,16003,0
7,2015,-76,-348,252,-340,594,16114,0
7,2016,-122,-58,-24,-340,602,16167,0
7,2017,36,172,-118,-354,617,16084,0
7,2018,-98,162,390,-393,623,16072,0
7,2019,206,-428,-290,-363,668,16033,0
7,2020,26,-174,252,-314,694,15954,0
7,2021,-188,-24,574,-263,684,15934,0
7,2022,-538,-394,-314,-327,698,15980,0
7,2023,82,-70,-94,-351,654,15967,0
7,2024,-178,520,-36,-371,669,16006,0
7,2025,-42,-324,-82,-352,626,16042,0
7,2026,-98,-740,-314,-348,642,16083,0
7,2027,48,-220,-602,-349,648,16085,0
7,2028,-156,-370,-174,-256,693,16047,0
7,2029,138,266,126,-290,658,16061,0
7,2030,-222,150,-210,-290,622,16007,0
7,2031,-336,-278,310,-321,572,16059,0
7,2032,-122,542,-266,-350,533,16012,0
7,2033,160,114,460,-383,596,15978,0
7,2034,-258,58,310,-361,633,16064,0
7,2035,-248,-94,56,-395,711,16044,0
7,2036,-90,-520,-14,-365,758,15975,0
7,2037,-336,-46,206,-357,706,16039,0
7,2038,-22,68,-140,-374,632,16012,0
7,2039,70,-232,218,-340,580,16051,0
7,2040,-78,-312,182,-402,632,16063,0
7,2041,94,428,240,-396,688,15967,0
7,2042,82,-382,-94,-385,703,15942,0
7,2043,-8,126,-220,-292,679,15922,0
7,2044,-66,44,-142,-249,638,15967,0
7,2045,14,-474,206,-248,584,16055,0
7,2046,12,300,-210,-319,597,16049,0
7,2047,-18,-184,-70,-332,595,16063,0
7,2048,-44,-210,-464,-364,646,16110,0
7,2049,-124,-220,22,-405,686,16046,0
7,2050,-234,-590,148,-424,661,16034,0
7,2051,-66,-660,-174,-449,650,16054,0
7,2052,-156,-58,-348,-426,673,16009,0
7,2053,-270,-508,-118,-344,681,16040,0
7,2054,-202,-474,-278,-318,652,15998,0
7,2055,-122,-764,276,-278,637,16043,0
7,2056,-54,46,482,-254,605,15968,0
7,2057,-246,-312,-336,-234,612,16026,0
7,2058,432,-290,44,-269,616,16034,0
7,2059,-178,-636,564,-313,674,16011,0
7,2060,-66,392,252,-357,696,16008,0
7,2061,-112,288,136,-359,659,16039,0
7,2062,80,-232,494,-352,670,16085,0
7,2063,-156,358,-440,-396,664,16079,0
7,2064,-290,-232,102,-354,680,16010,0
7,2065,-214,-244,378,-376,701,16026,0
7,2066,-10,-186,-36,-349,686,16020,0
7,2067,-98,-324,-602,-282,673,15968,0
7,2068,-222,104,-36,-218,660,16027,0
7,2069,-90,-140,-210,-227,599,16098,0
7,2070,-54,-474,-174,-291,595,16030,0
7,2071,-78,404,-394,-334,645,16086,0
7,2072,-224,-982,-118,-384,664,16086,0
7,2073,-42,242,-612,-330,664,16009,0
7,2074,-44,-70,-106,-329,619,15964,0
7,2075,-166,-440,332,-326,594,15992,0
7,2076,-406,230,-774,-277,592,16032,0
7,2077,60,-254,-440,-274,626,16037,0
7,2078,-112,-116,126,-282,688,16118,0
7,2079,216,-12,368,-363,666,16049,0
