id,cnt,gx,gy,gz,ax,ay,az,pls
0,0,-584,-266,-456,-137,395,16299,0
0,1,-630,-92,-1114,-188,315,16212,0
0,2,-176,522,-480,-528,269,16053,0
0,3,-458,164,224,-810,100,15868,0
0,4,-134,-300,-572,-1052,-69,15809,0
0,5,196,-760,-180,-961,89,15766,0
0,6,374,-508,96,-836,204,15849,0
0,7,-20,-324,-422,-613,415,15889,0
0,8,-280,-1178,-112,-593,502,15821,0
0,9,-348,-358,524,-721,481,15788,0
0,10,-506,-382,-330,-702,250,15944,0
0,11,-226,-1156,-676,-701,-6,16050,0
0,12,192,-1410,546,-580,-183,16203,0
0,13,160,-1432,304,-386,-179,16340,0
0,14,340,-1480,488,-212,-71,16427,0
0,15,712,-232,188,-212,59,16282,0
0,16,688,-612,558,-366,336,16100,0
0,17,1038,-648,-18,-462,687,15885,0
0,18,836,-116,478,-638,994,15782,0
0,19,238,-1480,-168,-754,1073,15780,0
0,20,-54,-1410,-792,-689,749,16068,0
0,21,396,-1086,-1230,-601,407,16280,0
0,22,430,-1792,-158,-512,160,16680,0
0,23,724,-1248,-1022,-331,-191,16849,0
0,24,892,-648,-1022,-99,-262,16917,0
0,25,1332,-728,-838,-7,-2,16824,0
0,26,916,-254,-1206,-286,302,16639,0
0,27,858,-600,-734,-529,179,16499,0
0,28,676,-70,-768,-777,82,16404,0
0,29,802,-612,-1784,-1060,108,16321,0
0,30,-56,-1848,-1690,-1539,333,16303,0
0,31,-302,-2254,-1748,-1456,-91,16597,0
0,32,-584,-2704,-1968,-794,-428,17169,0
0,33,-494,-3328,-3432,103,-689,17784,0
0,34,-978,-2126,-2914,1051,-1145,18307,0
0,35,-1396,-694,-2118,1437,-1752,18416,0
0,36,-1012,-566,-1644,1359,-2226,18117,0
0,37,-110,774,-1160,794,-2322,17367,0
0,38,454,658,-550,143,-1969,16488,0
0,39,1310,600,-1564,-374,-1563,15835,0
0,40,1412,-1398,-596,-676,-1126,15498,0
0,41,1558,-2646,282,-466,-1361,15521,0
0,42,2098,-2092,-376,446,-1533,15658,0
0,43,2348,-2380,-906,1304,-1383,15813,0
0,44,2696,-232,-308,1702,-1083,15762,0
0,45,2054,-232,-1068,1964,-665,15610,0
0,46,1310,658,-1310,1589,-235,15218,0
0,47,352,1456,-1518,1231,172,14981,0
0,48,-664,1074,-1484,935,95,14860,0
0,49,-1632,958,-2222,672,-440,15071,0
0,50,-1394,372,-2406,873,-1426,15171,0
0,51,-1350,-12,-1056,1056,-1765,15457,0
0,52,-820,404,-1138,1117,-1892,15530,0
0,53,-686,-254,-1460,1004,-1648,15313,0
0,54,-550,162,-400,853,-1213,15191,0
0,55,-1114,590,-630,788,-701,14986,0
0,56,-1970,208,-1276,602,-609,15005,0
0,57,-2276,-520,-468,568,-822,15118,0
0,58,-1858,0,-100,822,-1166,15359,0
0,59,-1474,-312,662,1068,-1407,15402,0
0,60,-820,-600,384,1248,-1271,15280,0
0,61,-32,566,1572,1304,-743,14985,0
0,62,-324,382,776,1337,-33,14690,0
0,63,-832,-82,328,1077,610,14391,0
0,64,-1996,646,-18,707,868,14401,0
0,65,-1894,286,996,576,480,14474,0
0,66,-2184,150,800,545,54,14507,0
0,67,-2174,162,1134,221,-220,14806,0
0,68,-2060,-232,1630,-167,-90,14863,0
0,69,-2118,-186,1204,-255,-60,15079,0
0,70,-1982,-1328,1458,-198,-187,15353,0
0,71,-1340,-358,1376,187,-675,15846,0
0,72,-720,-1548,1250,490,-744,16002,0
0,73,-144,-982,1676,491,-407,15972,0
0,74,-652,-150,2276,440,-8,16054,0
0,75,-888,46,3430,296,160,16158,0
0,76,-730,428,2668,292,-196,16130,0
0,77,-586,474,3198,306,-349,16264,0
0,78,-358,1270,3094,350,-356,16347,0
0,79,-156,1722,3636,109,-249,16349,0
0,80,-314,844,3694,-168,-20,16180,0
0,81,-314,832,3672,-501,-65,16114,0
0,82,316,-314,3890,-463,-294,16362,0
0,83,608,58,3614,-98,-480,16530,0
0,84,330,-658,3902,-141,-214,16848,0
0,85,-66,70,4640,-305,-214,17056,0
0,86,-156,288,4570,-257,-353,17171,0
0,87,-618,-290,4386,-497,-569,17277,0
0,88,-550,-404,4698,-582,-802,17334,0
0,89,-156,-1768,5448,-285,-1089,17568,0
0,90,104,-1376,4616,131,-1322,17713,0
0,91,216,-1236,5136,621,-1398,17821,0
0,92,710,-578,6624,757,-1410,17783,0
0,93,904,300,6542,855,-1188,17428,0
0,94,880,358,5816,497,-749,16962,0
0,95,-100,-82,6508,-294,-311,16775,0
0,96,-1092,-1422,5828,-889,-696,17002,0
0,97,-550,-2680,5124,-332,-1724,17305,0
0,98,92,-2056,5608,215,-2537,17768,0
0,99,578,-2728,6024,624,-2991,17983,0
0,100,1412,-1976,6404,1234,-3186,17974,0
0,101,2380,-1328,6624,1537,-3028,17468,0
0,102,2674,474,6716,1292,-2410,16621,0
0,103,2618,462,6692,598,-1552,15869,0
0,104,2256,658,6162,-44,-1291,15342,0
0,105,2256,162,6162,-339,-1825,14912,0
0,106,2978,300,6334,-397,-2098,14634,0
0,107,3282,-346,5746,-378,-1865,14330,0
0,108,2784,-508,5112,-628,-1505,14274,0
0,109,2516,-740,4836,-805,-1328,14376,0
0,110,1400,-1698,4328,-907,-1246,14673,0
0,111,442,-1710,3164,-908,-1241,15079,0
0,112,-292,-1734,2760,-619,-1362,15578,0
0,113,-630,-2172,2380,-463,-1758,15996,0
0,114,-1012,-1780,2092,-270,-2276,16350,0
0,115,-630,-1884,2114,-6,-2719,16620,0
0,116,-708,-554,2218,344,-2798,16514,0
0,117,160,184,2496,443,-2807,16290,0
0,118,386,636,1758,221,-2374,15806,0
0,119,114,750,1746,-31,-1739,15300,0
0,120,-460,728,2448,-281,-1350,14807,0
0,121,-538,1166,2230,-519,-1292,14415,0
0,122,-538,1052,2264,-996,-1408,14309,0
0,123,90,344,1988,-1105,-1788,14175,0
0,124,804,-448,1722,-945,-1504,14056,0
0,125,826,-532,1364,-901,-834,14075,0
0,126,362,-970,1216,-845,-229,14038,0
0,127,-562,-1202,984,-978,40,14255,0
0,128,-832,-1282,638,-1034,-53,14589,0
0,129,-1238,-2276,984,-826,-512,15068,0
0,130,-460,-2218,408,-500,-911,15544,0
0,131,-326,-2150,62,-93,-999,15842,0
0,132,-10,-1664,-204,270,-809,16012,0
0,133,114,-450,-76,425,-690,16060,0
0,134,-108,360,-354,279,-364,15920,0
0,135,-730,-290,-308,-246,-189,15917,0
0,136,-642,-648,-872,-642,-367,15980,0
0,137,-370,-566,-952,-611,-609,16071,0
0,138,112,-704,-1218,-564,-647,16188,0
0,139,172,-1282,-884,-436,-723,16320,0
0,140,262,-624,-1022,-288,-749,16332,0
0,141,542,-450,-1194,-323,-768,16441,0
0,142,870,126,-1206,-347,-810,16464,0
0,143,1490,70,-664,-134,-547,16482,0
0,144,1726,774,-214,-242,95,16294,0
0,145,1310,208,-710,-366,613,16086,0
0,146,994,-312,-1194,-541,1026,15973,0
0,147,632,58,-1402,-664,1010,15964,0
0,148,362,-590,-1414,-552,641,16225,0
0,149,678,-404,-2360,-197,353,16680,0
0,150,318,-382,-2176,89,236,16946,0
0,151,194,196,-1680,41,213,17163,0
0,152,360,-278,-1944,-64,155,17183,0
0,153,12,-960,-1772,-27,56,17159,0
0,154,510,-128,-2152,-51,-32,17124,0
0,155,248,-982,-2660,290,-85,17043,0
0,156,-550,-1318,-3110,194,149,17204,0
0,157,-1016,-1550,-3212,556,-288,17511,0
0,158,-2106,-866,-3316,1093,-384,17650,0
0,159,-2930,-242,-3904,1266,-634,17666,0
0,160,-3854,590,-3812,1203,-1230,17562,0
0,161,-4200,602,-3328,785,-1750,17397,0
0,162,-3822,624,-2878,-13,-2764,17203,0
0,163,-2556,-232,-3456,-149,-3324,16957,0
0,164,-1452,-116,-3144,38,-3298,16855,0
0,165,-474,-1016,-1414,433,-3091,16745,0
0,166,-32,126,-1484,832,-2986,16651,0
0,167,332,-252,-942,1025,-2906,16640,0
0,168,1198,-382,-688,1251,-2714,16403,0
0,169,1476,-186,-654,1419,-2302,16047,0
0,170,1288,-1272,-2130,1516,-1911,15922,0
0,171,510,-1294,-1484,1622,-1608,15982,0
0,172,-416,-1548,-838,2295,-2094,15967,0
0,173,-482,-1410,-2186,2519,-2289,15963,0
0,174,-414,-2242,-1414,2551,-2368,16165,0
0,175,-122,-1572,-998,2766,-2595,16319,0
0,176,170,-1016,-1748,3286,-2667,16449,0
0,177,-360,600,-1598,3817,-2590,16408,0
0,178,-234,2496,-296,3977,-2272,15926,0
0,179,-640,3340,-422,2944,-1820,15182,0
0,180,-1036,3328,-468,1704,-1604,14356,0
0,181,-528,2924,592,831,-1646,13635,0
0,182,-370,2092,558,362,-1711,13390,0
0,183,474,970,362,455,-1969,13575,0
0,184,870,670,754,810,-1784,13650,0
0,185,1296,0,1412,1107,-1172,13568,0
0,186,1050,416,1100,1204,-415,13591,0
0,187,656,404,292,1208,395,13557,0
0,188,-438,1074,84,1029,820,13736,0
0,189,-1250,682,-296,641,547,13969,0
0,190,-1532,-104,-952,469,-190,14367,0
0,191,-1408,-336,-492,357,-708,14900,0
0,192,-722,-532,258,360,-1097,15368,0
0,193,-42,174,-284,794,-1535,15758,0
0,194,644,-278,108,1098,-1426,15845,0
0,195,950,-324,384,1208,-835,15838,0
0,196,1074,646,-30,1380,-129,15615,0
0,197,464,1144,-734,1214,310,15434,0
0,198,-280,2010,-318,892,197,15361,0
0,199,-494,2138,-364,648,-158,15338,0
0,200,-414,2172,-746,260,-546,15394,0
0,201,-226,1478,384,79,-772,15450,0
0,202,712,1826,742,11,-878,15469,0
0,203,1242,1444,938,125,-632,15434,0
0,204,1310,1190,350,281,-256,15442,0
0,205,1344,1248,1272,313,121,15521,0
0,206,634,878,1066,99,373,15649,0
0,207,870,762,822,-29,275,15773,0
0,208,870,404,1492,-122,286,16017,0
0,209,330,-440,1722,-12,214,16281,0
0,210,306,-428,1884,86,125,16541,0
0,211,498,116,1272,309,56,16758,0
0,212,-290,116,1318,390,112,17031,0
0,213,-720,-716,1700,330,-40,17343,0
0,214,-686,80,1976,392,-171,17533,0
0,215,-460,1074,2438,273,-349,17731,0
0,216,-520,484,2160,384,-483,17837,0
0,217,-720,820,2634,325,-453,17722,0
0,218,-1250,-578,3244,-533,-486,17830,0
0,219,-868,-718,2772,-496,-1061,18106,0
0,220,-288,-1200,2056,20,-1234,18571,0
0,221,-258,-1584,1838,535,-1080,18932,0
0,222,-878,-1722,1814,1118,-1163,19098,0
0,223,-1184,-1318,2564,1145,-1337,19106,0
0,224,-1464,-150,2138,793,-1543,18962,0
0,225,-1554,-1398,1596,554,-1973,18741,0
0,226,-754,-1676,2046,510,-2137,18619,0
0,227,-304,-1640,1364,960,-2665,18581,0
0,228,870,-1318,1192,1593,-3719,18225,0
0,229,2528,820,1608,2172,-4218,17605,0
0,230,3812,1594,2160,2060,-3791,16463,0
0,231,4354,2150,2056,1070,-2520,15146,0
0,232,3768,2934,2530,145,-1308,13970,0
0,233,2776,2566,3060,-976,-530,13253,0
0,234,1796,1770,2046,-2040,-132,12870,0
0,235,634,-856,776,-2781,-94,13089,0
0,236,228,-2704,-606,-2430,-955,13863,0
0,237,800,-3594,-1426,-1243,-1956,14951,0
0,238,1016,-4738,-2002,-10,-2762,15911,0
0,239,1692,-2946,-1702,929,-2867,16491,0
0,240,1794,-2000,-1252,1644,-2599,16694,0
0,241,1084,150,-756,1522,-2119,16502,0
0,242,904,832,-226,734,-1706,16065,0
0,243,690,1028,132,-270,-1588,15615,0
0,244,712,438,-976,-755,-1549,15481,0
0,245,1004,-220,-1010,-436,-1581,15519,0
0,246,1468,-34,-1276,163,-1151,15534,0
0,247,1276,370,-1322,609,-453,15337,0
0,248,330,1514,-1932,645,-39,14946,0
0,249,-68,1884,-1840,266,-149,14671,0
0,250,-360,658,-1968,-327,-514,14351,0
0,251,228,-174,-2130,-828,-1033,14323,0
0,252,1186,-290,-2094,-797,-1369,14402,0
0,253,1536,-404,-1426,-714,-1255,14487,0
0,254,1816,-1120,-1080,-722,-819,14646,0
0,255,1130,-1502,-1876,-631,-280,14826,0
0,256,960,-970,-1414,-408,-248,14989,0
0,257,826,-682,-618,-240,-358,15167,0
0,258,690,-682,-1426,-210,-782,15426,0
0,259,1038,-382,-1310,-215,-828,15413,0
1,260,780,1386,-1736,1156,-1378,17514,0
1,261,620,356,-1932,947,-1188,17076,0
1,262,950,404,-2210,548,-956,16831,0
1,263,722,-740,-2176,631,-850,16541,0
1,264,744,-1872,-3202,669,-531,16577,0
1,265,24,-2254,-2878,1039,-557,16834,0
1,266,-166,-3386,-3016,1985,-1095,17313,0
1,267,226,-2704,-4262,2997,-1741,17785,0
1,268,1208,-716,-4032,3713,-2408,17835,0
1,269,1848,-338,-3110,3840,-2388,17415,0
1,270,2526,1594,-2532,3033,-1743,16451,0
1,271,2750,1362,-2186,2209,-787,15309,0
1,272,2808,1328,-1748,1693,-260,14474,0
1,273,3066,126,-2832,1411,174,13953,0
1,274,2810,-694,-3064,1291,830,13970,0
1,275,2358,-682,-3420,1617,1300,14134,0
1,276,1140,-658,-4366,1794,1531,14505,0
1,277,-200,-924,-4688,1826,1270,14861,0
1,278,-834,-890,-4850,1822,628,15274,0
1,279,-1094,-960,-5058,1950,-139,15643,0
1,280,-606,-786,-4988,2333,-769,15953,0
1,281,-382,-58,-5346,2670,-935,16248,0
1,282,160,-150,-4608,2860,-944,16239,0
1,283,-12,716,-4700,2628,-709,16010,0
1,284,-32,2046,-4066,1985,-352,15638,0
1,285,-200,1282,-3248,1382,-20,15190,0
1,286,-324,902,-3524,916,25,14817,0
1,287,-134,1202,-3120,740,174,14512,0
1,288,160,-208,-3064,644,363,14372,0
1,289,-76,-278,-3870,792,505,14459,0
1,290,-868,-486,-2670,1032,629,14526,0
1,291,-1060,-450,-2532,1046,681,14454,0
1,292,-1252,184,-2406,881,682,14515,0
1,293,-1376,-636,-2232,661,676,14511,0
1,294,-1588,174,-1276,483,655,14639,0
1,295,-982,-418,-1794,310,577,14967,0
1,296,-1274,-924,-2106,372,459,15031,0
1,297,-720,80,-1334,382,257,15225,0
1,298,-866,-336,-1022,448,296,15333,0
1,299,-282,-670,-1368,560,486,15313,0
1,300,-552,78,-1148,636,755,15284,0
1,301,-382,-116,-18,743,1106,15307,0
1,302,-958,196,-618,741,1262,15194,0
1,303,-1262,324,-664,473,1248,15035,0
1,304,-1440,278,166,266,979,14956,0
1,305,-1012,-440,84,207,664,15046,0
1,306,-56,-624,84,320,665,15091,0
1,307,-258,-162,4,660,986,15374,0
1,308,-290,0,188,1011,1196,15550,0
1,309,-688,34,-250,1163,1270,15852,0
1,310,-764,774,-504,1155,1149,15925,0
1,311,-224,346,166,1110,877,15984,0
1,312,-372,1942,154,904,831,15981,0
1,313,-102,1214,604,672,1037,15931,0
1,314,-200,1006,1042,406,1206,15795,0
1,315,-158,842,442,71,1229,15800,0
1,316,-110,-404,754,128,1261,15973,0
1,317,12,-520,96,413,1237,16329,0
1,318,-562,-682,500,718,1251,16824,0
1,319,102,-174,488,1121,1195,17261,0
1,320,-792,784,-64,1378,1034,17598,0
1,321,-878,1260,1180,1444,974,17763,0
1,322,-1398,1606,1134,960,1247,17703,0
1,323,-1824,912,870,-101,1131,17843,0
1,324,-1544,-162,580,23,106,18170,0
1,325,-722,-520,1354,728,-637,18681,0
1,326,-370,-704,1066,1034,-452,18932,0
1,327,-438,-440,1814,1242,-284,19047,0
1,328,-156,-358,1020,1599,-517,18781,0
1,329,384,-150,650,1625,-427,18357,0
1,330,520,-46,454,1570,-39,17896,0
1,331,160,578,524,1708,228,17491,0
1,332,-756,1986,200,1456,41,17137,0
1,333,-696,1432,270,1161,-747,16910,0
1,334,-180,1084,420,1070,-1596,16574,0
1,335,1084,1318,-112,1027,-2010,16412,0
1,336,1772,1490,258,1085,-1987,16106,0
1,337,1818,2264,316,948,-1682,15687,0
1,338,1668,2566,374,393,-1255,15074,0
1,339,1218,2078,-456,-297,-961,14622,0
1,340,766,1132,-318,-976,-945,14378,0
1,341,338,-554,-122,-1241,-969,14455,0
1,342,260,-808,-1230,-888,-1330,15014,0
1,343,90,-1548,-1310,-218,-1628,15606,0
1,344,-20,-2218,-550,259,-1796,16113,0
1,345,-122,-2160,-768,694,-1797,16673,0
1,346,-102,-1744,-296,1250,-1766,16869,0
1,347,148,-1064,-410,1622,-1715,16724,0
1,348,362,-24,4,1554,-1692,16363,0
1,349,518,404,-642,1420,-1361,15888,0
1,350,408,890,384,720,-949,15310,0
1,351,394,474,62,180,-741,15018,0
1,352,1014,578,132,57,-682,14710,0
1,353,1398,-704,16,17,-190,14471,0
1,354,1344,-278,-284,213,547,14415,0
1,355,654,-336,-700,328,1127,14336,0
1,356,-496,-24,-226,171,1222,14416,0
1,357,-866,-300,-560,-56,673,14603,0
1,358,-722,-1398,-1322,-126,63,14938,0
1,359,-124,-1110,-1138,-175,-305,15334,0
1,360,430,-1422,-1218,168,-256,15591,0
1,361,510,-1756,-1392,682,71,15784,0
1,362,518,-600,-1830,836,548,15883,0
1,363,700,-48,-1460,673,909,15746,0
1,364,272,22,-884,74,1160,15554,0
1,365,678,12,-2094,-385,1144,15390,0
1,366,778,-104,-1298,-742,1210,15385,0
1,367,994,-220,-1634,-846,1202,15432,0
1,368,1512,-312,-1932,-654,1200,15558,0
1,369,1378,-1168,-2278,-450,1319,15809,0
1,370,1468,-462,-1540,-304,1346,16005,0
1,371,1466,-704,-1932,-79,1418,16254,0
1,372,1454,-1376,-2878,203,1420,16548,0
1,373,1488,332,-2428,538,1522,16640,0
1,374,802,-34,-2152,435,1755,16689,0
1,375,250,566,-2832,486,1711,16605,0
1,376,-270,474,-2072,243,1680,16547,0
1,377,-798,1120,-1932,-9,1302,16536,0
1,378,-404,542,-2060,-150,663,16737,0
1,379,-482,854,-2106,44,253,16878,0
1,380,-32,716,-1910,-180,133,17065,0
1,381,826,-266,-1518,-126,194,17061,0
1,382,1308,-416,-1852,445,652,16740,0
1,383,566,312,-1818,65,1954,16364,0
1,384,-1172,-1780,-2026,-438,2147,16326,0
1,385,-2614,-1398,-3260,-58,1602,16544,0
1,386,-3560,-2762,-4032,642,720,17386,0
1,387,-4338,-2276,-3028,1275,-639,17875,0
1,388,-4298,-1296,-2670,1821,-1912,18394,0
1,389,-3314,-2614,-1932,2215,-3111,18461,0
1,390,-1318,-2230,-1668,2651,-2978,18063,0
1,391,-382,-1872,-2060,2732,-1851,17576,0
1,392,-426,-1502,-2082,2634,-970,17216,0
1,393,14,92,-1726,2798,-1144,16740,0
1,394,172,740,-1818,2695,-1419,16386,0
1,395,484,578,-2014,2210,-1550,15713,0
1,396,914,832,-2118,1583,-1533,15157,0
1,397,1296,70,-1194,1136,-1503,14753,0
1,398,1556,-346,-1980,918,-1342,14520,0
1,399,1524,-2022,-2060,1020,-1247,14589,0
1,400,1590,-1930,-1494,1518,-928,14830,0
1,401,1136,-1690,-2106,1981,-585,15133,0
1,402,428,-2010,-2290,2131,-406,15305,0
1,403,-360,-590,-2222,2172,-473,15289,0
1,404,-902,-948,-2302,1794,-748,15334,0
1,405,-732,-1536,-2406,1702,-1413,15686,0
1,406,352,-1734,-2118,2037,-2029,16037,0
1,407,1388,-1548,-2464,2572,-2138,16113,0
1,408,1600,-774,-2474,2721,-1612,15963,0
1,409,1444,404,-1530,2521,-978,15534,0
1,410,1038,888,-1380,2009,-466,14930,0
1,411,340,958,-1022,1419,-269,14406,0
1,412,180,670,-1264,852,-218,14221,0
1,413,476,80,-734,635,-178,14125,0
1,414,520,-554,-952,883,-184,14226,0
1,415,302,-846,-1310,1171,-49,14237,0
1,416,-178,1016,-618,1309,265,14386,0
1,417,-844,288,-468,1223,619,14310,0
1,418,-1068,34,-284,914,674,14354,0
1,419,-922,890,28,939,624,14329,0
1,420,-606,162,-388,835,646,14405,0
1,421,-722,80,-1298,775,784,14449,0
1,422,-844,474,-492,897,913,14676,0
1,423,-1194,-566,84,951,950,14834,0
1,424,-1170,554,-560,1018,777,15081,0
1,425,-1430,866,-284,950,414,15262,0
1,426,-1102,844,304,872,307,15451,0
1,427,-688,704,1192,845,420,15423,0
1,428,-620,1086,1608,944,688,15398,0
1,429,-640,994,1746,884,886,15368,0
1,430,-382,1930,2150,694,970,15366,0
1,431,-166,1502,2138,388,790,15307,0
1,432,396,1478,2564,121,817,15331,0
1,433,386,798,2160,-253,1061,15359,0
1,434,656,70,2242,-334,1482,15467,0
1,435,634,-312,2426,-218,1861,15601,0
1,436,-22,-1260,2426,36,2060,16035,0
1,437,-630,-1490,1400,681,1875,16682,0
1,438,-810,-994,1964,1338,1506,17428,0
1,439,-1364,-440,1826,1623,1091,17962,0
1,440,-1486,230,1906,1659,742,18320,0
1,441,-1386,866,2102,1418,451,18552,0
1,442,-764,1016,2356,1181,292,18552,0
1,443,-348,1236,2934,1163,259,18432,0
1,444,-360,322,3140,861,613,18039,0
1,445,-708,266,3476,73,951,17958,0
1,446,-426,-982,3048,448,502,18242,0
1,447,-146,-1202,2392,1666,98,18339,0
1,448,-290,80,3106,1835,323,18224,0
1,449,-1904,-346,3244,1208,886,18153,0
1,450,-2184,46,2956,772,113,17762,0
1,451,-1658,-348,3106,637,-457,17777,0
1,452,-1522,-1284,2760,743,-820,17864,0
1,453,-1102,-1376,2346,1259,-1487,17966,0
1,454,-22,-256,3060,1651,-2288,17893,0
1,455,1162,518,3740,1791,-2887,17496,0
1,456,2854,1040,3452,1405,-2876,16701,0
1,457,4080,888,4594,656,-2219,15884,0
1,458,4950,1144,5066,144,-1335,14898,0
1,459,4634,508,3982,-182,-488,14241,0
1,460,3878,-242,4098,-682,-125,13735,0
1,461,3134,-152,4064,-849,23,13662,0
1,462,2108,-1422,3106,-1489,217,13929,0
1,463,1140,-3408,2346,-1486,-333,14482,0
1,464,1060,-4056,1700,-689,-1213,15162,0
1,465,1130,-5362,1412,92,-1605,16188,0
1,466,1216,-5560,580,1059,-1884,16978,0
1,467,1510,-4520,846,2361,-2005,17678,0
1,468,1074,-2426,880,3247,-1953,17825,0
1,469,792,-242,178,3297,-1611,17505,0
1,470,474,658,996,2314,-1115,16895,0
1,471,518,832,754,1220,-877,16126,0
1,472,160,300,-30,482,-882,15435,0
1,473,620,356,-826,307,-715,15180,0
1,474,386,-590,178,515,-569,15162,0
1,475,532,-428,-1252,834,-470,15306,0
1,476,498,-70,-1022,1094,-588,15286,0
1,477,454,46,-180,995,-867,15409,0
1,478,330,486,-976,955,-1069,15274,0
1,479,902,0,-572,631,-1193,15167,0
1,480,1262,-70,-30,619,-927,14990,0
1,481,1298,-578,-802,777,-208,14806,0
1,482,1558,532,-204,898,538,14556,0
1,483,926,46,524,846,865,14343,0
1,484,428,982,-434,668,797,14238,0
1,485,418,-104,-710,462,649,14131,0
1,486,520,-46,-112,284,643,14135,0
1,487,634,-128,-1276,314,700,14204,0
1,488,90,-520,-998,596,905,14453,0
1,489,216,-866,-250,563,988,14664,0
1,490,-20,116,-18,526,1110,15018,0
1,491,-180,-232,-710,667,898,15052,0
1,492,36,288,-526,832,764,15224,0
1,493,104,266,-814,486,870,15244,0
1,494,-56,578,96,2,999,15182,0
1,495,-166,-70,466,-436,1111,15104,0
1,496,-562,-728,720,-342,1011,15245,0
1,497,34,-2924,74,-158,1027,15596,0
1,498,238,-2046,-272,268,1006,16084,0
1,499,530,-1884,-560,1130,975,16729,0
1,500,68,-1560,-572,1584,923,17209,0
1,501,-730,-544,74,1585,879,17293,0
1,502,-664,-912,478,1328,1098,17154,0
1,503,-1308,-658,-710,1113,1305,16991,0
1,504,-854,-798,-330,1070,1757,16803,0
1,505,-1928,-2542,-422,728,2399,16847,0
1,506,-3034,-3780,-1402,1062,1863,17238,0
1,507,-3312,-2854,-1968,2034,1205,17808,0
1,508,-4048,-2334,-2106,2576,782,18424,0
1,509,-4746,-1424,-1438,2833,200,18774,0
1,510,-5186,-950,-1344,3028,-718,18787,0
1,511,-4722,-808,-318,2670,-1324,18451,0
1,512,-3820,-370,-930,2156,-1388,17942,0
1,513,-3360,-740,-572,1762,-1283,17483,0
1,514,-2704,-1098,-272,1528,-1417,17210,0
1,515,-2310,-1146,200,1432,-1847,17028,0
1,516,-978,-1640,-446,1646,-2473,16839,0
1,517,656,-1132,720,2001,-2650,16644,0
1,518,1544,-496,742,2328,-2160,16101,0
1,519,2130,148,1008,2256,-1216,15488,0
2,520,418,136,338,-472,706,15860,0
2,521,520,-232,166,-529,630,15864,0
2,522,630,-302,682,-575,533,15952,0
2,523,970,116,316,-474,605,16026,0
2,524,902,-578,270,-504,771,16099,0
2,525,710,116,-260,-360,939,16297,0
2,526,464,-1098,50,-216,954,16504,0
2,527,608,-314,-260,-101,805,16792,0
2,528,668,58,-468,152,830,16956,0
2,529,464,242,50,64,1120,16981,0
2,530,-202,644,-792,-169,1440,16985,0
2,531,-824,136,-884,-426,1399,17009,0
2,532,-788,-82,-492,-563,946,17058,0
2,533,270,332,-1460,-444,605,17258,0
2,534,204,-418,-1622,60,775,17317,0
2,535,-822,-926,-734,-155,964,17431,0
2,536,-1318,-1122,-1298,-254,600,17523,0
2,537,-1794,-1378,-618,-19,182,17690,0
2,538,-1826,-1006,-560,259,-245,17892,0
2,539,-1950,-2404,-1714,744,-1054,18212,0
2,540,-676,-2000,-1494,1313,-1961,18414,0
2,541,328,-232,-1148,1697,-2311,18236,0
2,542,1016,-844,-826,1717,-1959,17736,0
2,543,846,-324,-260,1405,-1619,17106,0
2,544,1228,-1378,234,1113,-1467,16413,0
2,545,2006,-1618,-260,1034,-1488,15879,0
2,546,2290,-2888,-896,1325,-1357,15627,0
2,547,2502,-2348,-918,1889,-1124,15678,0
2,548,2718,-2174,-400,2662,-1284,15920,0
2,549,2604,-1698,-792,3491,-1651,15839,0
2,550,3156,-254,258,3457,-1169,15385,0
2,551,2636,298,142,2849,-324,14810,0
2,552,1432,428,-296,2455,102,14335,0
2,553,812,-12,-1344,2198,51,14115,0
2,554,642,-924,-2002,2250,-398,14236,0
2,555,-22,-808,-2532,2363,-801,14514,0
2,556,-200,-1352,-1980,2537,-1151,14829,0
2,557,-732,-742,-1690,2639,-1367,15037,0
2,558,-416,-392,-2060,2549,-1510,15150,0
2,559,-426,266,-1956,2156,-1474,15107,0
2,560,-448,-994,-1634,1956,-1311,15127,0
2,561,-688,-162,-1356,1845,-1273,14970,0
2,562,36,486,-746,1790,-1267,14895,0
2,563,102,-1678,-802,1941,-1031,14849,0
2,564,46,-1214,-988,2117,-809,14706,0
2,565,-90,-208,-780,1909,-272,14665,0
2,566,-606,-336,-780,1921,-60,14685,0
2,567,-844,566,-872,1953,-157,14619,0
2,568,-810,624,-952,1540,-125,14662,0
2,569,-1318,392,-296,1631,76,14713,0
2,570,-1384,832,-318,1396,-6,14718,0
2,571,-1590,-140,-468,991,-11,14788,0
2,572,-1274,196,-88,887,-163,14873,0
2,573,-1228,474,-318,876,-340,14995,0
2,574,-1082,-48,-446,851,-225,15007,0
2,575,-552,934,720,990,42,15179,0
2,576,-652,474,338,1164,250,15118,0
2,577,-676,-104,374,966,539,15136,0
2,578,-678,796,362,781,801,15186,0
2,579,-1004,702,616,619,762,15175,0
2,580,-1026,-82,270,600,673,15425,0
2,581,-632,242,62,910,496,15686,0
2,582,-496,92,1042,1299,387,16021,0
2,583,-304,668,50,1582,423,16325,0
2,584,-302,948,212,1614,533,16291,0
2,585,-136,1120,1838,1264,694,16244,0
2,586,-372,1698,1284,952,737,16125,0
2,587,-102,1352,1550,563,763,16105,0
2,588,168,922,2426,448,668,16142,0
2,589,1004,866,2010,602,697,16264,0
2,590,676,554,1872,923,922,16653,0
2,591,766,-130,2772,1266,1065,16900,0
2,592,338,-24,2206,1622,1136,17023,0
2,593,36,612,1942,1641,1187,17116,0
2,594,-236,656,2598,1506,1082,17282,0
2,595,-100,1006,2484,1468,807,17429,0
2,596,-168,786,2496,1362,596,17522,0
2,597,70,740,2402,1412,195,17699,0
2,598,384,1166,2692,1612,-132,17827,0
2,599,608,1282,3152,1719,-32,17636,0
2,600,24,1270,3798,848,805,17166,0
2,601,-406,-938,3130,207,1027,17044,0
2,602,-722,-1214,1826,639,806,17402,0
2,603,-1184,-2174,1688,1409,472,17944,0
2,604,-1578,-1792,2714,2100,-100,18476,0
2,605,-1440,-890,3094,2348,-889,18708,0
2,606,-858,-1134,2956,2404,-1719,18588,0
2,607,146,-1134,3164,2287,-2112,18114,0
2,608,1094,-302,2680,2072,-1777,17385,0
2,609,992,-1180,3198,1677,-919,16713,0
2,610,48,-624,2714,1186,-759,16603,0
2,611,496,126,2726,1563,-2102,16539,0
2,612,1828,-128,2530,1720,-3214,16340,0
2,613,3832,1026,3048,1231,-3254,15960,0
2,614,4568,958,4110,661,-2669,15144,0
2,615,4938,1502,3694,236,-1924,14241,0
2,616,4926,1640,4316,-231,-1196,13581,0
2,617,4554,-118,4570,-567,-355,12977,0
2,618,3732,-844,3036,-891,298,12735,0
2,619,2492,-1074,2414,-1087,758,12909,0
2,620,980,-2716,2206,-1131,451,13572,0
2,621,-258,-3374,2034,-886,-415,14227,0
2,622,-890,-4656,2034,-461,-924,15040,0
2,623,-1026,-5582,1768,-102,-1410,16102,0
2,624,-686,-4784,870,1228,-2304,17303,0
2,625,336,-4636,1008,2675,-2909,18031,0
2,626,1476,-2242,1758,3712,-2824,18047,0
2,627,1940,472,1906,3804,-1811,17581,0
2,628,688,980,2230,2897,-536,16738,0
2,629,318,2530,1688,1674,-257,15558,0
2,630,-280,2646,1964,541,-443,14582,0
2,631,280,552,1122,-562,-516,13894,0
2,632,678,624,1364,-925,-305,13708,0
2,633,948,-1170,1204,-542,-199,13934,0
2,634,668,-2566,1134,153,183,14336,0
2,635,542,-1490,870,791,598,14899,0
2,636,-202,-1168,684,1297,761,15461,0
2,637,-686,-844,-204,1447,536,15781,0
2,638,-902,-578,-204,1292,16,16178,0
2,639,-384,12,-88,1064,-467,16215,0
2,640,552,530,-538,772,-544,16099,0
2,641,978,692,-54,498,-251,15804,0
2,642,1354,-104,512,529,307,15659,0
2,643,1218,-174,62,715,951,15419,0
2,644,1046,264,-160,794,1429,15365,0
2,645,980,414,-100,925,1394,15339,0
2,646,554,1490,282,915,1277,15159,0
2,647,428,1640,-8,577,1243,15003,0
2,648,-90,982,558,107,1248,14828,0
2,649,204,566,188,-99,1161,14832,0
2,650,586,-450,246,-141,1171,14896,0
2,651,826,-578,50,46,1266,15129,0
2,652,228,-1110,154,520,1389,15469,0
2,653,-20,-752,-456,1097,1460,15760,0
2,654,-428,-358,-388,1396,1404,16170,0
2,655,-440,-764,-180,1719,1223,16482,0
2,656,-846,-670,-676,1870,1010,16632,0
2,657,-1442,-208,-514,1707,879,16727,0
2,658,-1748,-578,-710,1653,714,16844,0
2,659,-2040,-162,-1576,1421,693,16936,0
2,660,-2592,-1318,-1138,1254,195,17147,0
2,661,-3044,-3086,-1056,1244,-49,17312,0
2,662,-3706,-2624,-1714,1275,-262,18033,0
2,663,-5186,-3388,-1760,1777,-1020,18721,0
2,664,-4824,-3940,-1448,2425,-2179,19280,0
2,665,-3800,-3028,-1310,3329,-3361,19662,0
2,666,-1792,-1930,-722,3951,-3848,19493,0
2,667,-202,936,-364,3868,-3415,18787,0
2,668,352,1734,524,3116,-2449,17673,0
2,669,858,2912,350,2307,-1723,16548,0
2,670,1476,3084,776,1651,-1340,15241,0
2,671,1544,2436,766,579,-630,14291,0
2,672,1230,1132,-192,-170,238,13673,0
2,673,642,332,-584,-218,742,13448,0
2,674,180,-1260,-618,64,866,13809,0
2,675,-914,-2322,-1910,1027,492,14569,0
2,676,-1566,-2660,-1772,1980,-96,15353,0
2,677,-1770,-1446,-998,2445,-757,16142,0
2,678,-2118,-774,-1702,2843,-1431,16745,0
2,679,-1534,220,-1206,3223,-2069,17016,0
2,680,-666,1676,-400,3198,-2378,16786,0
2,681,-104,3072,-330,2418,-1989,16301,0
2,682,-148,2274,-204,1433,-1529,15508,0
2,683,194,2958,616,788,-1316,14795,0
2,684,620,2044,-204,127,-920,14269,0
2,685,958,1098,-642,-216,-740,14058,0
2,686,792,150,-76,-160,-623,14086,0
2,687,880,138,708,139,-592,14179,0
2,688,598,-210,500,569,-468,14416,0
2,689,282,-346,408,854,-419,14663,0
2,690,-236,-70,534,1130,-435,14968,0
2,691,-214,-186,488,1153,-539,15059,0
2,692,-350,588,96,1088,-704,15208,0
2,693,-316,1062,592,1212,-798,15185,0
2,694,-102,448,524,1108,-748,15159,0
2,695,180,692,224,949,-548,15032,0
2,696,46,1270,1180,700,-387,14893,0
2,697,-280,658,1192,412,-413,14749,0
2,698,178,956,1030,99,-422,14756,0
2,699,158,208,766,26,-385,14752,0
2,700,598,-336,1814,163,-221,14901,0
2,701,640,-326,1780,580,145,15086,0
2,702,598,-174,1296,934,367,15213,0
2,703,338,716,1584,1017,682,15190,0
2,704,712,288,1758,861,880,15256,0
2,705,-22,854,650,719,932,15268,0
2,706,-180,472,972,575,1002,15430,0
2,707,-416,-70,1618,452,1167,15834,0
2,708,-586,22,1238,574,1161,16109,0
2,709,-1240,-234,1584,738,1264,16323,0
2,710,-1846,542,1434,922,1341,16656,0
2,711,-2278,716,1746,796,1019,16935,0
2,712,-2110,-430,1664,691,486,17247,0
2,713,-1928,-370,1216,705,32,17665,0
2,714,-1038,-358,1238,953,-287,18001,0
2,715,-292,-762,1008,1415,-333,18328,0
2,716,-146,276,1364,1845,-197,18382,0
2,717,-510,1408,2438,1578,425,17839,0
2,718,-1376,748,2460,309,773,17730,0
2,719,-1014,-600,1458,305,-142,17669,0
2,720,-472,-1410,1192,514,-699,17964,0
2,721,-270,-1132,754,907,-677,18264,0
2,722,-700,-1054,1008,1385,-788,18383,0
2,723,-812,-638,546,1583,-1094,18366,0
2,724,-1330,-1284,420,1438,-1356,18383,0
2,725,-1016,-1180,16,1538,-1670,18400,0
2,726,-236,-938,-168,2084,-2271,18468,0
2,727,394,-706,108,2820,-3120,18376,0
2,728,2370,1594,524,3267,-3416,17725,0
2,729,2458,2160,1364,2476,-2417,16863,0
2,730,2312,3014,1768,1453,-1902,15789,0
2,731,1782,2668,1192,687,-1683,14926,0
2,732,1928,948,662,-86,-1723,14614,0
2,733,2028,-754,420,-27,-1715,14487,0
2,734,1906,-1920,-42,644,-1582,14694,0
2,735,1252,-2508,-722,1426,-1504,15165,0
2,736,922,-1470,-330,2008,-1629,15535,0
2,737,306,-832,-54,2305,-1797,15744,0
2,738,970,-476,-456,2119,-1950,15801,0
2,739,564,-58,-134,1778,-1968,15821,0
2,740,1014,-312,188,1519,-1991,15754,0
2,741,1218,-140,84,1509,-2018,15521,0
2,742,1366,-186,-550,1579,-1611,15340,0
2,743,1692,264,-722,1504,-1188,15185,0
2,744,1240,-82,-376,1211,-774,15035,0
2,745,620,-58,-722,820,-636,14770,0
2,746,372,-302,-364,394,-683,14575,0
2,747,1274,-1490,282,243,-851,14634,0
2,748,1704,-1432,-618,531,-868,14705,0
2,749,2016,-1492,-838,960,-424,14842,0
2,750,1614,-1456,-342,1197,225,14951,0
2,751,1072,-1006,-1218,1304,554,15004,0
2,752,442,-798,-1530,1251,590,14909,0
2,753,214,-268,-1392,810,691,14937,0
2,754,22,-162,-1540,473,638,14916,0
2,755,112,-474,-1852,253,432,15112,0
2,756,328,-962,-1852,206,198,15264,0
2,757,766,-1354,-1230,415,150,15479,0
2,758,1386,-868,-1898,747,351,15699,0
2,759,1230,-924,-1818,986,714,15755,0
2,760,1276,-46,-1322,1141,939,15610,0
2,761,1014,624,-1518,1099,1165,15461,0
2,762,708,44,-2002,712,1319,15365,0
2,763,980,-176,-1876,626,1266,15205,0
2,764,790,-104,-1726,449,1252,15286,0
2,765,302,-452,-2660,375,1288,15207,0
2,766,134,-938,-2108,268,1253,15257,0
2,767,-12,-1492,-1634,313,1067,15316,0
2,768,-68,-1932,-1910,408,897,15257,0
2,769,90,-2970,-2382,444,1057,15142,0
2,770,-506,-2300,-1784,515,1360,15130,0
2,771,-814,-2568,-1634,637,1429,15078,0
2,772,-1350,-2888,-2556,740,1243,15270,0
2,773,-1666,-2288,-2406,1259,1095,15413,0
2,774,-2750,-3226,-1610,1144,1440,15733,0
2,775,-4712,-4960,-2856,880,1660,16734,0
2,776,-5896,-4842,-3790,2182,878,17881,0
2,777,-6188,-4080,-3086,3271,-373,18659,0
2,778,-7238,-3940,-2832,3695,-1313,19261,0
2,779,-5784,-3272,-2868,3836,-2880,19144,0
3,780,1128,1628,5448,498,554,15150,0
3,781,1320,716,4652,130,523,14943,0
3,782,1660,-34,4710,110,458,15187,0
3,783,1914,-522,4004,633,218,15643,0
3,784,1964,-242,5216,1292,357,15917,0
3,785,1432,-266,4662,1527,561,15979,0
3,786,1026,368,4398,1501,727,16047,0
3,787,936,680,4790,1311,701,15927,0
3,788,1036,344,4524,1325,489,16062,0
3,789,1568,590,3994,1557,536,16036,0
3,790,1624,1674,4006,1611,852,15951,0
3,791,1558,912,5124,1434,983,15787,0
3,792,1826,1444,4766,1161,938,15719,0
3,793,2054,474,4836,786,961,15747,0
3,794,2154,438,4364,1010,1039,15720,0
3,795,2560,-220,3878,1465,1352,15895,0
3,796,1768,10,3266,1577,1844,15798,0
3,797,1274,532,3924,1365,2147,15646,0
3,798,34,12,3164,1213,2111,15651,0
3,799,-824,-418,2252,1168,1719,15912,0
3,800,-1316,-1306,2552,1102,982,16251,0
3,801,-856,-1308,2196,1198,304,16672,0
3,802,-758,-1342,1676,1667,49,16967,0
3,803,-780,-1446,2542,1688,-204,17060,0
3,804,-180,-1008,2322,1950,-295,17035,0
3,805,44,-614,2898,2113,-321,16805,0
3,806,260,-300,3176,2013,-116,16504,0
3,807,238,242,3176,1944,-323,16073,0
3,808,1060,-130,2438,1788,-394,15700,0
3,809,1262,472,2784,1589,-221,15195,0
3,810,1792,-46,3682,1378,61,14802,0
3,811,1964,-532,2634,1299,268,14541,0
3,812,1376,-1446,1826,1402,436,14543,0
3,813,1136,-1226,2274,1658,525,14630,0
3,814,146,-1400,1814,1983,763,14856,0
3,815,-540,-868,870,2191,794,15153,0
3,816,-756,-70,1088,2163,817,15355,0
3,817,-1138,44,1364,1795,609,15534,0
3,818,-1488,-244,650,1545,299,15618,0
3,819,-632,-532,442,1528,150,15635,0
3,820,-768,-430,72,1655,376,15827,0
3,821,-1342,462,362,1864,637,15993,0
3,822,-1932,436,164,1987,608,16046,0
3,823,-2568,820,650,1818,386,16291,0
3,824,-2762,1156,512,1613,-381,16400,0
3,825,-2244,624,500,1267,-831,16429,0
3,826,-1724,1074,708,1119,-994,16429,0
3,827,-1296,416,754,1149,-956,16428,0
3,828,-778,174,950,1294,-925,16256,0
3,829,-292,554,1054,1395,-577,15963,0
3,830,-182,436,1688,1174,-17,15714,0
3,831,-450,220,1192,879,299,15437,0
3,832,-416,1014,1860,834,160,15252,0
3,833,56,750,2726,774,193,15171,0
3,834,-192,-34,1710,743,393,15030,0
3,835,-180,438,2530,606,793,15013,0
3,836,-610,356,2276,656,970,15011,0
3,837,-792,922,2172,694,1106,15148,0
3,838,-1240,680,2276,546,1143,15213,0
3,839,-1070,1166,2726,296,1085,15394,0
3,840,-1340,1062,2564,82,807,15574,0
3,841,-1130,182,2702,91,379,15792,0
3,842,-654,888,2922,145,-21,15973,0
3,843,-22,-280,2506,408,-281,16174,0
3,844,618,356,2922,538,-139,16254,0
3,845,958,208,3026,585,308,16171,0
3,846,576,196,3578,589,820,16138,0
3,847,394,496,2876,598,859,16227,0
3,848,428,-208,3176,904,502,16452,0
3,849,542,-292,3186,1260,355,16706,0
3,850,936,-26,2034,1707,287,16884,0
3,851,868,-496,3314,2146,255,17039,0
3,852,1082,936,3418,2253,123,16893,0
3,853,1204,934,3234,2021,297,16536,0
3,854,1444,1384,2634,1707,569,16020,0
3,855,1452,1628,3210,1348,758,15578,0
3,856,1342,1454,2588,918,1034,15182,0
3,857,1228,876,2610,713,1045,15122,0
3,858,902,1282,2298,820,868,15158,0
3,859,1048,1062,2356,946,893,15235,0
3,860,-22,2138,1838,622,1106,15340,0
3,861,-1082,2196,2206,105,1117,15349,0
3,862,-1420,1006,2484,-504,524,15511,0
3,863,-1310,552,2346,-488,-373,15971,0
3,864,-668,-176,1896,-61,-871,16389,0
3,865,-260,-60,2276,218,-989,16920,0
3,866,112,172,2368,535,-1073,17051,0
3,867,234,668,2264,566,-930,17043,0
3,868,68,1118,1850,226,-343,16740,0
3,869,-882,218,2150,-225,-46,16668,0
3,870,-2006,392,1560,-561,-321,16664,0
3,871,-2096,-300,2518,-546,-839,16818,0
3,872,-1962,-1320,2126,-49,-1337,17024,0
3,873,-1204,-1074,1330,562,-1516,17216,0
3,874,-926,-1030,2034,1185,-1381,17187,0
3,875,-778,680,2252,1634,-982,17136,0
3,876,-1578,1248,1896,1633,-718,17100,0
3,877,-2266,2056,2380,1361,-987,16824,0
3,878,-1782,3858,2968,724,-1354,16346,0
3,879,-1080,3420,2922,-272,-1491,15934,0
3,880,-744,2750,1838,-1438,-1301,15558,0
3,881,-452,1258,2632,-1879,-1332,15453,0
3,882,294,-1216,3326,-1965,-1241,15422,0
3,883,642,-982,2840,-1875,-1076,15831,0
3,884,382,-1804,2310,-1244,-1020,16305,0
3,885,564,-1896,2840,-480,-1076,16832,0
3,886,1264,-1248,2448,317,-1193,17045,0
3,887,1320,-130,1826,661,-1055,17089,0
3,888,1056,910,2690,362,-760,16679,0
3,889,778,1720,2448,-367,-486,16126,0
3,890,1128,1882,1630,-884,-226,15753,0
3,891,978,876,1054,-1003,-147,15532,0
3,892,1072,-46,1642,-808,-31,15510,0
3,893,676,1386,592,-457,-35,15502,0
3,894,516,1800,812,-184,-89,15534,0
3,895,68,2008,834,-374,-229,15359,0
3,896,80,2112,938,-861,-133,15067,0
3,897,-304,1780,304,-1328,-90,14829,0
3,898,-136,1580,754,-1677,-149,14731,0
3,899,-236,784,420,-1916,-280,14683,0
3,900,-350,-476,-168,-1864,-363,14814,0
3,901,-180,-904,-308,-1598,-644,15126,0
3,902,-226,-1848,558,-1215,-904,15523,0
3,903,204,-2094,338,-674,-1179,15873,0
3,904,452,-1908,-42,-198,-968,16148,0
3,905,426,-1666,708,118,-598,16371,0
3,906,304,-982,558,234,-418,16385,0
3,907,328,-84,420,162,-385,16264,0
3,908,394,266,154,-120,-343,16011,0
3,909,348,-534,1008,-466,-340,15655,0
3,910,834,-704,362,-649,-261,15475,0
3,911,980,-1526,776,-656,-92,15227,0
3,912,1428,-1758,994,-554,162,15316,0
3,913,1498,-1712,420,-201,467,15300,0
3,914,1444,-1468,-342,35,760,15399,0
3,915,1350,-1886,-318,-115,971,15250,0
3,916,1364,-1942,-272,-33,1144,15250,0
3,917,1138,-1594,-1126,12,1471,15033,0
3,918,480,-1366,-954,-112,1766,14858,0
3,919,516,-996,-814,-339,1864,14859,0
3,920,238,-1848,-1876,-503,1829,15103,0
3,921,46,-2278,-1876,-219,1523,15442,0
3,922,510,-1826,-2222,108,1284,15824,0
3,923,302,-1550,-2522,215,1307,16098,0
3,924,204,-1606,-2568,209,1526,16177,0
3,925,20,-672,-2452,16,1599,16276,0
3,926,44,-198,-1864,-62,1530,16273,0
3,927,260,-232,-2394,-339,1467,16306,0
3,928,192,-696,-2394,-523,1569,16355,0
3,929,160,-948,-2832,-767,2163,16187,0
3,930,-1534,-1400,-3110,-1391,2864,16295,0
3,931,-3044,-2716,-4250,-1191,2522,16629,0
3,932,-4610,-2566,-5278,-773,1914,17633,0
3,933,-5288,-4428,-4528,343,387,18693,0
3,934,-4464,-3018,-4908,1999,-1560,19562,0
3,935,-2708,-1862,-3558,2970,-2382,19664,0
3,936,-1310,806,-3374,3041,-2039,19087,0
3,937,-1410,1618,-3110,2139,-1062,17806,0
3,938,-1386,2184,-3362,804,-407,16482,0
3,939,-1542,2230,-3744,-627,-178,15384,0
3,940,-958,-1204,-4274,-1455,-618,14905,0
3,941,-564,-2568,-4296,-1268,-1334,14845,0
3,942,190,-2902,-4378,-340,-1478,15312,0
3,943,260,-4310,-3802,814,-1531,16064,0
3,944,144,-3422,-4000,1953,-1782,16553,0
3,945,226,-3272,-2970,2468,-1953,16891,0
3,946,686,-2012,-2812,2898,-2053,16932,0
3,947,708,-1042,-3408,2771,-1833,16671,0
3,948,124,-1112,-3432,2547,-1414,16325,0
3,949,134,-742,-3408,2371,-1423,16198,0
3,950,-136,-672,-3386,2386,-1819,16203,0
3,951,-462,-2082,-3352,2822,-2282,16345,0
3,952,-36,-1192,-3352,3118,-2477,16476,0
3,953,102,-1074,-3606,3514,-2451,16452,0
3,954,-158,-810,-3524,3516,-2283,16085,0
3,955,-248,298,-2568,3170,-1767,15690,0
3,956,-528,-578,-2210,2881,-1419,15050,0
3,957,-530,-486,-2868,2531,-1203,14698,0
3,958,-496,-534,-2406,2225,-1004,14618,0
3,959,-510,-858,-1680,2245,-1040,14535,0
3,960,-610,-1862,-2106,2441,-1073,14633,0
3,961,-238,-1250,-1576,2482,-978,14827,0
3,962,10,-1504,-1148,2580,-917,14853,0
3,963,360,-1248,-722,2585,-677,14831,0
3,964,158,-1492,-756,2393,-67,14769,0
3,965,92,-1178,-146,2162,233,14625,0
3,966,-362,-1122,-180,1847,513,14494,0
3,967,-880,-1052,-1046,1674,699,14426,0
3,968,-1004,-1178,-930,1516,702,14433,0
3,969,-836,-2314,-1518,1357,543,14674,0
3,970,-846,-2278,-1830,1655,286,15096,0
3,971,-960,-2522,-988,1792,86,15365,0
3,972,-882,-1538,-746,2041,-183,15875,0
3,973,-292,-1468,-1184,2494,-248,16051,0
3,974,-284,-742,-1160,2551,-121,16096,0
3,975,-180,-1364,-1102,2486,237,15998,0
3,976,-238,90,-318,2380,532,15912,0
3,977,-192,-312,-756,2247,652,15695,0
3,978,-430,-26,-180,2222,648,15653,0
3,979,-292,240,-410,2336,606,15578,0
3,980,-418,796,-250,2366,576,15456,0
3,981,-676,902,-250,2232,561,15308,0
3,982,-666,1674,38,2049,305,15139,0
3,983,-450,1398,-158,1758,166,14991,0
3,984,-474,1512,570,1387,295,14924,0
3,985,-510,956,604,1399,403,14861,0
3,986,146,1386,62,1406,705,14897,0
3,987,-124,1028,200,1309,841,14957,0
3,988,-248,-92,754,1493,720,15311,0
3,989,178,276,902,1848,340,15699,0
3,990,518,276,1042,2146,330,16153,0
3,991,544,486,1550,2372,503,16386,0
3,992,588,912,1792,2500,970,16426,0
3,993,472,610,1850,2381,1386,16420,0
3,994,114,1630,1630,2198,1509,16368,0
3,995,-148,784,766,2052,1547,16623,0
3,996,34,576,1204,2003,1267,17058,0
3,997,-202,702,938,2311,975,17383,0
3,998,-292,1280,730,2479,878,17629,0
3,999,-836,1732,176,2133,1003,17739,0
3,1000,-890,1316,1042,1863,797,17852,0
3,1001,-1048,-26,950,1637,539,17984,0
3,1002,-1386,-442,-76,1530,-44,18491,0
3,1003,-608,-1768,178,2268,-693,19011,0
3,1004,136,-1364,420,3558,-1256,19427,0
3,1005,1128,-14,316,4522,-1523,19418,0
3,1006,1486,1500,440,4671,-1336,18651,0
3,1007,1950,2692,1238,4166,-765,17495,0
3,1008,2108,4240,742,3411,-141,16178,0
3,1009,1476,5060,822,2330,258,14997,0
3,1010,1270,5890,590,1558,144,14144,0
3,1011,1082,5290,1584,778,-64,13423,0
3,1012,542,4076,1054,125,-69,12971,0
3,1013,452,2946,1262,-365,22,12839,0
3,1014,304,1270,1134,-682,-243,13169,0
3,1015,102,576,420,-513,-696,13709,0
3,1016,710,-278,592,297,-1125,14377,0
3,1017,890,32,488,574,-1165,14957,0
3,1018,576,220,1112,709,-1140,15251,0
3,1019,484,206,754,637,-1181,15418,0
3,1020,-236,878,1134,30,-1188,15608,0
3,1021,-372,474,1216,-476,-1326,15781,0
3,1022,-478,-1158,1018,-774,-1477,16021,0
3,1023,-194,-2452,1112,-613,-1789,16692,0
3,1024,530,-3178,1376,-21,-2193,17319,0
3,1025,912,-2614,720,754,-2383,18009,0
3,1026,1170,-2822,1480,1570,-2415,18588,0
3,1027,970,-1504,1838,2169,-2082,18695,0
3,1028,552,184,1838,2346,-1642,18541,0
3,1029,474,404,1054,2082,-1401,18044,0
3,1030,640,2460,1466,1647,-1360,17151,0
3,1031,552,1616,1330,875,-1144,16305,0
3,1032,564,1996,1020,101,-633,15583,0
3,1033,462,2080,822,-380,-340,14842,0
3,1034,844,402,950,-433,-349,14548,0
3,1035,1036,448,984,-381,9,14339,0
3,1036,946,78,120,-225,-34,14458,0
3,1037,676,300,972,290,212,14508,0
3,1038,888,946,154,178,271,14609,0
3,1039,280,634,478,128,327,14573,0
4,1040,866,-130,-2728,-1266,-909,15361,0
4,1041,212,-1192,-1518,-2070,-922,15116,0
4,1042,66,-1908,-1460,-2452,-926,15301,0
4,1043,392,-2162,-1022,-2243,-1248,15946,0
4,1044,1202,-2578,-1174,-1257,-1626,16412,0
4,1045,1892,-3306,-1806,-702,-1856,16606,0
4,1046,2716,-3006,-1588,-559,-2038,16421,0
4,1047,3030,-3006,-1864,-452,-2021,16308,0
4,1048,3022,-2438,-2336,-360,-1927,16267,0
4,1049,2376,-1758,-1690,-83,-1809,16196,0
4,1050,1520,-1758,-1438,47,-1828,16424,0
4,1051,1218,-2556,-1806,729,-1658,16779,0
4,1052,132,-1180,-2524,1573,-1278,17161,0
4,1053,-982,-672,-2244,1274,-1323,17556,0
4,1054,-2000,-14,-3710,-302,-1804,17977,0
4,1055,-2470,-892,-4748,-1042,-2871,18799,0
4,1056,-2482,-534,-5358,-715,-4231,19225,0
4,1057,-1952,90,-4886,497,-5361,18921,0
4,1058,-1070,1778,-3790,1216,-5609,18500,0
4,1059,-478,2770,-3296,967,-4944,17887,0
4,1060,-24,3186,-2234,427,-4074,17104,0
4,1061,594,2032,-2616,143,-3949,16162,0
4,1062,552,1338,-2418,-351,-3800,15831,0
4,1063,922,-442,-2106,-861,-4877,15241,0
4,1064,1418,-1724,-2602,-1484,-5344,15281,0
4,1065,1870,-3966,-1194,-1314,-5546,15186,0
4,1066,2558,-4624,-262,-311,-5315,14859,0
4,1067,2670,-4462,-342,694,-4475,14574,0
4,1068,2216,-4486,-908,2694,-3538,14501,0
4,1069,1520,-3388,-1644,2086,-2964,14324,0
4,1070,776,-1434,-2994,2942,-2791,14416,0
4,1071,166,-972,-3664,2533,-2705,14475,0
4,1072,-982,368,-2960,1722,-2749,15095,0
4,1073,-1220,136,-1772,1035,-3497,15680,0
4,1074,-1252,-118,-2036,961,-3817,16453,0
4,1075,-78,-740,-1080,1252,-4141,16574,0
4,1076,1148,460,-182,1584,-3755,16496,0
4,1077,1396,-348,132,1092,-3049,15904,0
4,1078,1362,-292,84,500,-2222,15399,0
4,1079,654,-140,570,334,-1763,14921,0
4,1080,294,-660,638,436,-1989,14701,0
4,1081,424,-846,1316,440,-2156,14761,0
4,1082,776,-1596,1964,427,-2029,14907,0
4,1083,948,-2970,2022,733,-1528,14861,0
4,1084,1012,-2522,1296,1064,-754,14722,0
4,1085,1026,-3178,1550,1190,-360,14610,0
4,1086,744,-2404,846,1189,214,14728,0
4,1087,-180,-1594,-492,1070,-109,14952,0
4,1088,-386,-360,-192,1114,-775,15168,0
4,1089,-428,-592,16,1249,-1239,15415,0
4,1090,-406,540,154,1453,-1320,15500,0
4,1091,-260,1904,972,1417,-1162,15256,0
4,1092,168,992,1330,1190,-877,14927,0
4,1093,-226,760,1134,1006,-444,14744,0
4,1094,-362,182,810,879,-241,14470,0
4,1095,-804,-280,1420,592,-268,14401,0
4,1096,-916,-1482,1272,270,-719,14458,0
4,1097,-1228,-2058,1608,355,-1308,14709,0
4,1098,-1072,-2314,3140,1152,-1448,15148,0
4,1099,-792,-2568,2598,2075,-1371,15560,0
4,1100,124,-1424,3094,2745,-1315,15280,0
4,1101,280,-522,3130,2501,-1123,14791,0
4,1102,-388,-580,4118,1630,-685,14548,0
4,1103,-1750,656,4156,769,-426,14764,0
4,1104,-2798,518,4132,526,-569,15510,0
4,1105,-2978,10,4986,1029,-1448,16316,0
4,1106,-2604,114,4502,1847,-1849,16954,0
4,1107,-1556,-256,4790,2359,-2370,17189,0
4,1108,-34,656,5400,2521,-2282,17069,0
4,1109,404,426,4662,2122,-1855,17083,0
4,1110,108,-234,4234,1979,-1369,16785,0
4,1111,20,-626,4236,1213,-1331,17007,0
4,1112,-14,-2868,3960,432,-2093,17419,0
4,1113,922,-4092,3302,1287,-2631,18039,0
4,1114,2040,-3814,2944,2933,-2998,18425,0
4,1115,3110,-1966,3868,3636,-3714,18007,0
4,1116,1352,1362,3176,3085,-2180,18640,0
4,1117,-1064,3938,4062,1944,-2660,18570,0
4,1118,-4050,6908,4270,963,-3043,19125,0
4,1119,-5164,8432,4190,309,-4756,18677,0
4,1120,-5312,8352,5124,-569,-5580,18896,0
4,1121,-4288,5776,4972,-1850,-6956,18476,0
4,1122,-1344,1720,4686,-2285,-7730,17370,0
4,1123,2368,-2960,3728,-1505,-8328,15742,0
4,1124,5604,-5988,2760,183,-7174,14219,0
4,1125,7630,-7778,1492,1175,-4936,12895,0
4,1126,7644,-8944,1066,1312,-3718,11815,0
4,1127,6064,-7512,1296,846,-2609,11526,0
4,1128,3436,-4832,1086,412,-2624,11258,0
4,1129,350,-1814,2080,93,-2843,11366,0
4,1130,-1942,598,3888,-645,-3188,11693,0
4,1131,-3792,1882,4684,-1209,-3615,12778,0
4,1132,-4714,2782,5158,-540,-3995,14105,0
4,1133,-4204,3776,4270,323,-4279,15164,0
4,1134,-3398,3822,3958,719,-3981,15890,0
4,1135,-2560,4666,2714,-13,-3763,16235,0
4,1136,-1420,3742,2126,-971,-3751,16356,0
4,1137,-1590,3650,1066,-2383,-3923,16310,0
4,1138,-2158,1996,1190,-3351,-4256,16282,0
4,1139,-2310,-280,1446,-4190,-4822,16362,0
4,1140,-1544,-2680,1860,-3939,-5580,16450,0
4,1141,-270,-3572,2242,-2484,-5865,16458,0
4,1142,1308,-3226,2726,-517,-5388,15924,0
4,1143,1792,-3086,3532,-51,-4060,15188,0
4,1144,1242,-1722,2656,-288,-2723,14409,0
4,1145,-16,-1562,2596,-307,-2040,13904,0
4,1146,-1938,-452,2552,-72,-2072,13562,0
4,1147,-2932,772,2392,-39,-2557,13949,0
4,1148,-3384,1720,2542,83,-3246,14286,0
4,1149,-3282,2100,3556,311,-3471,14828,0
4,1150,-3088,1996,3198,486,-3432,15023,0
4,1151,-2876,1014,2390,444,-3106,15151,0
4,1152,-1784,1004,2046,389,-2787,15207,0
4,1153,-1330,784,696,107,-2616,15219,0
4,1154,-2142,182,-54,-577,-2657,15306,0
4,1155,-2178,78,534,-1687,-3027,15566,0
4,1156,-2456,-670,1216,-2489,-3638,16048,0
4,1157,-1898,-2058,1928,-2594,-3882,16419,0
4,1158,-1070,-2198,2484,-1986,-4072,16520,0
4,1159,-194,-2938,2968,-1053,-3905,16580,0
4,1160,702,-2576,1584,-465,-3528,16270,0
4,1161,976,-2556,1294,-235,-3078,15651,0
4,1162,1284,-2174,328,-342,-2816,15319,0
4,1163,1038,-2036,-642,-249,-3007,14843,0
4,1164,754,-2220,-1068,-125,-3177,14697,0
4,1165,-80,-1424,-988,-303,-3149,14704,0
4,1166,-292,-1398,246,-778,-3276,14810,0
4,1167,-474,-2336,166,-1363,-3275,15000,0
4,1168,-496,-2880,350,-1082,-3410,15393,0
4,1169,-340,-1966,776,-471,-3353,15723,0
4,1170,-304,-1470,-400,-286,-3330,16173,0
4,1171,-38,-1054,-782,-356,-3167,16230,0
4,1172,-238,-326,-284,-765,-2738,16155,0
4,1173,-34,-302,-180,-1120,-2238,16126,0
4,1174,-884,-926,-828,-1449,-1697,16564,0
4,1175,-760,-418,-978,-2066,-2199,17183,0
4,1176,-306,-1308,-746,-2405,-2965,17623,0
4,1177,268,-1170,-596,-2394,-3484,17716,0
4,1178,778,-754,166,-1818,-3241,17856,0
4,1179,552,-474,616,-643,-2823,17665,0
4,1180,-2,748,1308,379,-2267,17520,0
4,1181,-1108,1384,94,412,-2224,17658,0
4,1182,-1544,1422,-504,-62,-3315,17950,0
4,1183,-600,206,-1690,-236,-4627,18374,0
4,1184,-464,-1400,-2454,-388,-5919,18576,0
4,1185,-386,-36,-2004,-126,-6722,18642,0
4,1186,-148,552,-1254,39,-7958,17545,0
4,1187,-294,1142,-364,-287,-8144,16586,0
4,1188,404,1836,1020,-592,-8076,15334,0
4,1189,606,-592,2622,-808,-7522,14339,0
4,1190,1442,-2810,2288,-126,-6780,13545,0
4,1191,1454,-4058,2414,1161,-5833,13171,0
4,1192,2140,-4704,2436,2488,-5086,12814,0
4,1193,2210,-4576,1354,3728,-4257,12741,0
4,1194,1542,-4138,754,4703,-3442,13175,0
4,1195,438,-2568,728,4919,-3205,13656,0
4,1196,-780,-140,754,4319,-3520,13994,0
4,1197,-2122,1292,-262,2812,-4387,14686,0
4,1198,-3290,3212,-18,1420,-5163,15330,0
4,1199,-3866,2968,-112,376,-6301,15817,0
4,1200,-3054,2182,-1138,243,-6640,16581,0
4,1201,-2186,1744,-642,539,-7001,16758,0
4,1202,-622,968,-238,1106,-7115,16759,0
4,1203,686,414,-446,1422,-6564,16152,0
4,1204,1748,-404,142,1704,-5302,15280,0
4,1205,2186,-1342,62,1706,-4214,14610,0
4,1206,2176,-2152,-884,1865,-3453,14176,0
4,1207,1194,-2278,-826,1949,-3390,14082,0
4,1208,358,-880,-642,1772,-3645,14316,0
4,1209,-318,-1758,-1242,1465,-3937,14721,0
4,1210,112,-520,-746,1503,-4129,14856,0
4,1211,-180,1096,-250,1600,-3853,14898,0
4,1212,-136,370,-434,1554,-3631,14792,0
4,1213,-206,1212,-1404,1410,-3447,14632,0
4,1214,-632,1662,-780,1044,-3117,14503,0
4,1215,-766,1214,-122,423,-3453,14534,0
4,1216,-1070,1026,-550,-353,-4110,14932,0
4,1217,-306,-1262,408,-488,-4580,15191,0
4,1218,46,-1170,996,-141,-4864,15328,0
4,1219,370,-1898,962,650,-4824,15226,0
4,1220,1116,-2266,984,1310,-4428,14784,0
4,1221,1488,-2036,1538,1752,-3826,14408,0
4,1222,1712,-2174,1514,1987,-3560,13910,0
4,1223,900,-1874,774,2161,-3169,13638,0
4,1224,756,-1944,708,1901,-2972,13571,0
4,1225,112,-2416,1504,1716,-2947,13623,0
4,1226,166,-2070,868,1640,-3035,13876,0
4,1227,146,-2856,822,1731,-3235,14228,0
4,1228,416,-1700,224,2177,-3118,14600,0
4,1229,360,-808,-308,2328,-2999,14790,0
4,1230,-236,-150,-492,2367,-2821,14753,0
4,1231,-352,1396,16,2201,-2681,14716,0
4,1232,-856,808,-226,2023,-2596,14702,0
4,1233,-938,1500,-758,2056,-2407,14867,0
4,1234,-1262,1906,-214,1988,-2576,15084,0
4,1235,-1286,1882,282,1446,-2397,15482,0
4,1236,-1242,1396,788,852,-2470,16077,0
4,1237,-1128,564,858,606,-2804,16790,0
4,1238,-292,-2,892,1067,-3144,17366,0
4,1239,676,-82,812,1764,-3085,17755,0
4,1240,1656,-222,-158,2149,-2836,17794,0
4,1241,2682,-84,-112,2120,-2570,17589,0
4,1242,1860,784,-664,2500,-2284,17661,0
4,1243,1692,1246,-1092,3099,-2636,17509,0
4,1244,530,3964,38,2673,-2318,17692,0
4,1245,-1252,4424,834,1449,-2458,17981,0
4,1246,-2042,3972,-226,795,-3350,18467,0
4,1247,-1804,3302,-964,1724,-4398,18621,0
4,1248,-1828,4216,-884,2771,-4731,19177,0
4,1249,-936,4574,-1056,2340,-5913,19070,0
4,1250,508,4608,-1380,857,-7199,18116,0
4,1251,2310,2632,-644,-480,-7225,17032,0
4,1252,2672,322,-388,-573,-5794,16419,0
4,1253,2908,-498,-918,590,-5078,15613,0
4,1254,3552,-1422,-64,1556,-4608,14918,0
4,1255,3890,-2740,-550,1796,-4351,14171,0
4,1256,4316,-2636,-1184,1692,-3926,13336,0
4,1257,3672,-1828,-666,995,-3594,12531,0
4,1258,2862,-2522,-114,319,-3294,12397,0
4,1259,1836,-2498,-134,-13,-3581,12616,0
4,1260,912,-2002,-44,249,-4197,12922,0
4,1261,168,-1378,970,440,-4575,13466,0
4,1262,-394,-868,408,147,-4743,14125,0
4,1263,-946,-996,292,116,-5071,14723,0
4,1264,-870,-188,16,266,-5421,15279,0
4,1265,-858,484,200,403,-5482,15672,0
4,1266,-938,680,-272,323,-5526,15670,0
4,1267,-1096,1258,-364,87,-5303,15562,0
4,1268,-1062,426,108,-230,-4920,15407,0
4,1269,-484,-554,-330,-332,-4894,15212,0
4,1270,292,-1898,-54,-120,-4839,15263,0
4,1271,246,-1700,-494,231,-4744,15173,0
4,1272,856,-996,-688,488,-4584,14974,0
4,1273,652,-1782,-1194,708,-4441,14725,0
4,1274,518,-602,-1298,902,-4468,14420,0
4,1275,144,252,-860,982,-4287,14236,0
4,1276,-948,-244,-1114,992,-4093,14318,0
4,1277,-1400,900,-1058,782,-3883,14509,0
4,1278,-1582,1164,-1290,700,-4220,14750,0
4,1279,-1646,1248,-1518,1047,-4429,14962,0
4,1280,-1538,1234,-1612,1277,-4245,15087,0
4,1281,-1648,1534,-2348,1059,-3891,15203,0
4,1282,-1792,1396,-2486,855,-3759,15053,0
4,1283,-1782,1270,-2740,424,-3654,15210,0
4,1284,-1988,1338,-2834,125,-3886,15496,0
4,1285,-1660,622,-3456,62,-4270,15754,0
4,1286,-756,-162,-3224,385,-4566,15877,0
4,1287,-14,738,-3858,666,-4557,15913,0
4,1288,-126,610,-3432,614,-4272,15729,0
4,1289,-102,240,-4008,544,-4172,15447,0
4,1290,-228,714,-4080,279,-3862,15360,0
4,1291,-352,148,-3674,200,-3807,15539,0
4,1292,-624,182,-4852,554,-3796,15547,0
4,1293,-172,44,-5106,1148,-3747,15580,0
4,1294,-306,298,-4874,1453,-3586,15525,0
4,1295,-124,910,-5530,1286,-3374,15384,0
4,1296,-486,644,-5934,698,-3312,15249,0
4,1297,-418,806,-6418,287,-3428,15200,0
4,1298,-318,506,-6672,246,-3620,15361,0
4,1299,-340,634,-6488,457,-3506,15515,0
5,1300,472,-442,-1494,-2793,-1530,15251,0
5,1301,-218,-280,-1278,-2676,-1329,15495,0
5,1302,-340,-904,-506,-2138,-1467,15569,0
5,1303,112,-1030,-872,-1490,-2069,15551,0
5,1304,914,-2198,-1194,-1145,-2457,15720,0
5,1305,1600,-2786,-918,-748,-2679,15646,0
5,1306,2070,-2844,-1992,-816,-2555,15497,0
5,1307,1498,-3746,-816,-927,-2245,15456,0
5,1308,868,-2418,-618,-1085,-2292,15430,0
5,1309,66,-2036,96,-1110,-1922,15548,0
5,1310,-870,-2972,198,-1205,-1877,16238,0
5,1311,-678,-1782,-54,-1203,-2090,16910,0
5,1312,-678,-3018,-112,-959,-2496,17582,0
5,1313,-374,-2360,-964,-986,-3064,17703,0
5,1314,-38,-1978,-240,-1448,-3177,17625,0
5,1315,-444,-2672,970,-1971,-3039,17543,0
5,1316,-778,-2602,834,-1697,-3030,17539,0
5,1317,-1560,-1874,1466,-960,-3201,17600,0
5,1318,-2166,-1378,2158,-604,-3455,17906,0
5,1319,-2912,68,1616,-591,-3634,18407,0
5,1320,-3454,922,1340,-354,-3929,18942,0
5,1321,-2586,1396,1548,-77,-4436,18821,0
5,1322,-1928,2634,524,-84,-4916,18773,0
5,1323,-550,2114,846,-694,-5540,18057,0
5,1324,730,1928,962,-2023,-5496,17050,0
5,1325,1416,1940,1420,-3037,-4803,16173,0
5,1326,1588,-348,1700,-4178,-4573,15529,0
5,1327,2704,-2116,1524,-4837,-4936,14970,0
5,1328,3490,-4716,2044,-4675,-4969,14452,0
5,1329,4350,-6878,2044,-3626,-4879,13739,0
5,1330,5070,-8218,2654,-2011,-4455,13282,0
5,1331,5420,-7408,3404,2,-4293,12463,0
5,1332,4608,-6992,3186,1441,-3050,12412,0
5,1333,3266,-4808,3738,2864,-2628,12008,0
5,1334,1734,-2094,4606,3247,-2516,12525,0
5,1335,-410,114,3496,2612,-3106,13465,0
5,1336,-2766,1096,3496,1955,-4153,14437,0
5,1337,-4388,2124,3740,1683,-5256,15556,0
5,1338,-4782,3314,3946,891,-6526,16650,0
5,1339,-4206,2678,4190,76,-7679,17448,0
5,1340,-2358,1258,4052,-311,-8145,17696,0
5,1341,76,-660,4580,-474,-7784,17358,0
5,1342,1688,-1758,4558,-437,-6499,16615,0
5,1343,2286,-3088,5366,-703,-5266,15658,0
5,1344,2036,-4012,4614,-1230,-4325,14872,0
5,1345,2016,-5178,3924,-1037,-4091,14369,0
5,1346,2104,-5884,4408,-455,-3605,14265,0
5,1347,1168,-5224,4476,194,-3332,14281,0
5,1348,978,-4278,4096,631,-2978,14016,0
5,1349,688,-3178,4306,835,-2878,13918,0
5,1350,-24,-2880,4858,803,-2645,13838,0
5,1351,-36,-1366,4154,789,-2457,13731,0
5,1352,-712,-1608,3568,421,-2666,14024,0
5,1353,-970,-1320,4006,137,-3006,14298,0
5,1354,-1266,-476,4118,-203,-3275,14581,0
5,1355,-1132,-94,4026,-406,-3430,14831,0
5,1356,-1186,-614,4906,-208,-3553,15006,0
5,1357,-792,-72,4398,208,-3560,15235,0
5,1358,-768,-234,4640,530,-3427,15370,0
5,1359,-488,1026,5006,430,-3296,15270,0
5,1360,-308,102,4834,-59,-3102,15040,0
5,1361,-306,-1030,4926,-697,-3075,14970,0
5,1362,-274,-1746,5422,-813,-3255,15059,0
5,1363,10,-2290,5214,-555,-3220,15104,0
5,1364,146,-2544,4548,-399,-3163,15299,0
5,1365,796,-2532,4764,158,-2916,15202,0
5,1366,1204,-1794,4802,760,-2145,15198,0
5,1367,528,-140,4478,1087,-1797,15431,0
5,1368,516,1316,5274,1188,-1635,15432,0
5,1369,-170,806,5090,984,-1498,15783,0
5,1370,-284,1234,3784,461,-1850,15969,0
5,1371,-48,1304,3646,-340,-2277,16382,0
5,1372,270,300,3694,-969,-2693,16479,0
5,1373,506,-26,4292,-1251,-2757,16654,0
5,1374,414,-568,4176,-1202,-2879,16823,0
5,1375,1112,-1076,4926,-723,-2901,16960,0
5,1376,1416,-730,5202,-257,-2679,16885,0
5,1377,2388,-788,4906,36,-2088,16814,0
5,1378,2086,-1756,4744,194,-1779,16878,0
5,1379,1958,-1678,3634,548,-2147,17010,0
5,1380,2072,44,4718,1080,-3206,17001,0
5,1381,212,3846,5390,845,-2564,17704,0
5,1382,-2718,6872,5828,88,-3333,18512,0
5,1383,-4556,10478,6286,-850,-5197,18965,0
5,1384,-3754,9796,7372,-2029,-7896,17519,0
5,1385,-4578,10466,6820,-4376,-7907,18834,0
5,1386,-3926,5752,6416,-6346,-9208,18252,0
5,1387,-1602,-1216,5436,-6954,-10526,17287,0
5,1388,1532,-7386,4306,-4735,-11115,16070,0
5,1389,4756,-10252,4410,-908,-9559,14883,0
5,1390,6198,-10702,4606,998,-6770,13487,0
5,1391,5726,-9720,3358,1373,-4664,12510,0
5,1392,3876,-6588,3590,742,-3657,11911,0
5,1393,1678,-4300,3404,-330,-3600,11730,0
5,1394,-554,-2128,4500,-1200,-3976,11746,0
5,1395,-2098,1408,5712,-2621,-4884,11560,0
5,1396,-2998,240,6762,-3919,-5597,11515,0
5,1397,-3214,102,7788,-4000,-5434,12136,0
5,1398,-3362,-510,9010,-2800,-4882,12936,0
5,1399,-3260,-546,9608,-1134,-4499,14404,0
5,1400,-4050,1060,8860,-314,-3778,16106,0
5,1401,-3734,1316,8596,-341,-4251,16839,0
5,1402,-2654,946,7244,-1091,-5693,16480,0
5,1403,-746,-718,6900,-2100,-6308,16349,0
5,1404,66,-1620,5814,-2918,-6058,16217,0
5,1405,596,-2902,5698,-2623,-5860,15575,0
5,1406,618,-2994,6058,-2200,-5281,15286,0
5,1407,980,-2152,6242,-1928,-4586,15073,0
5,1408,632,-1850,6358,-1616,-4210,14885,0
5,1409,346,-2556,5560,-1298,-3972,14437,0
5,1410,618,-1874,5390,-1005,-3758,14176,0
5,1411,540,-1204,4026,-892,-3813,13912,0
5,1412,-520,-244,3348,-883,-3923,14037,0
5,1413,-1264,506,2990,-1252,-4259,14313,0
5,1414,-2178,1292,2596,-1481,-5036,14646,0
5,1415,-2280,818,2862,-1427,-5701,15042,0
5,1416,-2086,866,3360,-1338,-6068,15344,0
5,1417,-1422,518,2712,-1363,-5743,15445,0
5,1418,-794,-302,1940,-1442,-5158,15273,0
5,1419,-396,-372,2136,-1271,-4494,15207,0
5,1420,-532,20,1100,-1339,-4060,14878,0
5,1421,-972,-292,662,-2002,-3808,14810,0
5,1422,-1208,20,708,-2508,-3763,14812,0
5,1423,-1320,-256,544,-2727,-3786,14971,0
5,1424,-822,-950,84,-2326,-4084,15156,0
5,1425,-308,218,106,-1682,-4002,15506,0
5,1426,222,390,-310,-1262,-3555,15599,0
5,1427,548,252,-574,-1375,-3149,15307,0
5,1428,1010,1708,-148,-1809,-2915,14952,0
5,1429,618,1084,-272,-2322,-2540,14604,0
5,1430,176,-72,-402,-2568,-2324,14650,0
5,1431,166,530,-20,-2548,-2607,14758,0
5,1432,888,124,-988,-2398,-2904,15178,0
5,1433,1304,114,-1646,-2087,-3063,15543,0
5,1434,2118,1916,-1636,-1621,-2868,15682,0
5,1435,2308,1662,-1404,-1660,-2731,15355,0
5,1436,2184,1788,-1934,-2452,-2223,14911,0
5,1437,1766,1604,-1312,-3635,-1839,14859,0
5,1438,1274,784,-1552,-4349,-1911,15289,0
5,1439,604,-372,-2476,-4372,-2459,16116,0
5,1440,1216,-892,-2026,-3864,-3304,16962,0
5,1441,2230,-1366,-2118,-2949,-3688,17793,0
5,1442,3042,-1586,-2556,-2489,-3590,18085,0
5,1443,3856,390,-1886,-2359,-3310,17883,0
5,1444,3888,448,-1598,-2244,-3005,17432,0
5,1445,2976,1962,-1980,-2241,-2241,17050,0
5,1446,1846,2470,-1842,-2316,-1640,16825,0
5,1447,-24,2770,-1784,-2623,-2181,16884,0
5,1448,-940,2412,-2132,-3455,-3366,17342,0
5,1449,-1354,2054,-2082,-4087,-4624,18116,0
5,1450,-1476,992,-1910,-3914,-5944,18773,0
5,1451,-1276,818,-1726,-3071,-7572,18855,0
5,1452,-532,564,-136,-2540,-8379,18357,0
5,1453,304,1026,1146,-1991,-8564,17278,0
5,1454,890,-140,1942,-1933,-7878,16084,0
5,1455,2038,-1354,2966,-1305,-7030,14950,0
5,1456,2364,-2648,4246,-245,-6719,14270,0
5,1457,3120,-4716,3752,984,-6239,13543,0
5,1458,3484,-5444,4006,2328,-4988,13110,0
5,1459,3132,-6056,3152,3383,-3800,12642,0
5,1460,2240,-4704,1836,3965,-2448,12652,0
5,1461,176,-3088,1190,3383,-1829,13610,0
5,1462,-1908,-1434,62,2467,-2246,14906,0
5,1463,-2550,218,-1922,1821,-3420,15871,0
5,1464,-2866,2460,-2962,1140,-4377,16704,0
5,1465,-2654,3002,-2270,408,-5112,17309,0
5,1466,-1852,4042,-2454,-518,-5478,17108,0
5,1467,-658,2864,-1542,-1700,-5661,16520,0
5,1468,100,772,-260,-2730,-5169,15981,0
5,1469,934,-706,-1184,-2682,-4578,15511,0
5,1470,1272,-2070,-1022,-1933,-3983,15196,0
5,1471,1508,-2428,188,-935,-3656,15048,0
5,1472,1712,-1378,616,-623,-3239,14586,0
5,1473,1700,-1746,1550,-771,-2865,14141,0
5,1474,1362,-2198,2184,-924,-2277,14084,0
5,1475,900,-2578,616,-591,-1922,14255,0
5,1476,42,-1990,302,46,-1808,14674,0
5,1477,-394,-1664,350,563,-2161,15080,0
5,1478,-714,436,-170,276,-2619,15340,0
5,1479,-792,876,84,-288,-2870,15411,0
5,1480,-416,888,650,-882,-3143,15206,0
5,1481,-80,864,212,-1246,-3003,15082,0
5,1482,-340,160,1112,-1593,-2704,14972,0
5,1483,-586,162,1664,-1784,-2578,15181,0
5,1484,-868,-358,1504,-1700,-2616,15310,0
5,1485,-476,-614,936,-1553,-2683,15420,0
5,1486,-124,-256,1412,-1049,-2655,15443,0
5,1487,424,-442,1708,-739,-2230,15297,0
5,1488,652,-1076,1018,-488,-1734,15121,0
5,1489,664,-614,636,-363,-1296,15117,0
5,1490,978,-1330,442,-593,-1379,14968,0
5,1491,1010,-1538,280,-904,-1634,14915,0
5,1492,902,-1550,154,-1026,-1707,14951,0
5,1493,910,-1458,244,-922,-1725,15170,0
5,1494,672,-1758,624,-685,-1729,15169,0
5,1495,866,-1424,1490,-726,-1794,15407,0
5,1496,638,-1932,1582,-768,-1903,15733,0
5,1497,886,-1250,590,-635,-1982,15678,0
5,1498,966,-118,728,-458,-2270,15537,0
5,1499,762,-1296,1270,-453,-2135,15500,0
5,1500,336,-234,1722,-616,-2093,15522,0
5,1501,-90,-2,2806,-896,-1972,15813,0
5,1502,-216,-1736,3186,-1012,-1887,16135,0
5,1503,132,-1944,2586,-1023,-2164,16503,0
5,1504,482,-3400,2392,-759,-2774,17024,0
5,1505,1010,-2868,2642,-195,-2956,17268,0
5,1506,1788,-3156,2054,813,-2193,17935,0
5,1507,562,-2070,188,1886,-1379,18552,0
5,1508,-70,1628,650,2034,-1699,18573,0
5,1509,-588,4170,754,721,-2281,18425,0
5,1510,-1290,3846,924,-1656,-3086,18233,0
5,1511,-1300,3418,314,-3258,-4001,18308,0
5,1512,-1784,1304,972,-3107,-3828,18413,0
5,1513,-2338,2054,1328,-1835,-3989,18408,0
5,1514,-1996,2136,1284,-512,-4420,18515,0
5,1515,-1626,3234,2250,-678,-4729,17830,0
5,1516,-318,2124,1838,-1424,-5053,16465,0
5,1517,574,160,1918,-1679,-4768,15615,0
5,1518,1712,-2198,1688,-1253,-4299,14583,0
5,1519,2014,-3192,1040,-347,-3894,13700,0
5,1520,1980,-4866,1074,362,-3549,12951,0
5,1521,1936,-3584,1570,868,-3305,12595,0
5,1522,1712,-3376,1826,664,-3466,12790,0
5,1523,1474,-4578,798,280,-4299,13289,0
5,1524,1666,-4324,232,226,-4695,13626,0
5,1525,1442,-2266,-688,499,-4656,13950,0
5,1526,662,436,-1346,346,-4647,13750,0
5,1527,-1468,3036,302,413,-3579,14609,0
5,1528,-3082,3880,820,-899,-3860,14684,0
5,1529,-3860,3638,336,-1582,-4427,15090,0
5,1530,-3826,2760,336,-1868,-5093,16051,0
5,1531,-2944,1442,26,-1982,-5547,16763,0
5,1532,-1908,286,-932,-1547,-6311,16898,0
5,1533,-294,-1030,-284,-1345,-6297,16666,0
5,1534,260,-2186,304,-1446,-6312,16065,0
5,1535,774,-3954,140,-1736,-5799,15271,0
5,1536,664,-4878,972,-1795,-5462,14628,0
5,1537,978,-6970,1986,-1099,-4987,14514,0
5,1538,650,-5548,660,348,-4082,14780,0
5,1539,416,-5120,500,1338,-3445,14958,0
5,1540,-184,-3214,-182,2051,-3090,15014,0
5,1541,-68,-2210,-930,1596,-2902,14727,0
5,1542,-262,-810,-1196,1108,-2542,14438,0
5,1543,-812,-660,-1092,589,-1935,14354,0
5,1544,-1694,44,-2684,261,-1615,14347,0
5,1545,-2630,588,-2616,-27,-1712,14494,0
5,1546,-3612,1940,-2696,-509,-2130,15035,0
5,1547,-3418,1986,-3282,-911,-3029,15789,0
5,1548,-3172,1950,-3066,-848,-3812,16456,0
5,1549,-2166,2262,-2442,-756,-3956,17013,0
5,1550,-1130,1084,-3400,-632,-4014,16917,0
5,1551,110,-626,-3180,-661,-3709,16397,0
5,1552,630,-106,-3398,-461,-3084,15774,0
5,1553,390,-348,-2708,-249,-2678,15166,0
5,1554,-204,218,-3780,-333,-2273,14940,0
5,1555,-602,852,-3514,-372,-2077,14885,0
5,1556,-926,610,-3674,-334,-2215,14968,0
5,1557,-882,738,-3340,-320,-2475,15282,0
5,1558,-510,-188,-2856,-228,-2432,15527,0
5,1559,-150,-244,-3526,-24,-2650,15585,0
6,1560,-1346,194,-2800,-2468,-2104,15091,0
6,1561,-1612,622,-1806,-2154,-1975,15340,0
6,1562,-2212,692,-540,-1710,-2186,15495,0
6,1563,-1852,610,-1012,-1822,-2475,15745,0
6,1564,-1876,-476,-1104,-1933,-2785,15964,0
6,1565,-1084,-302,-988,-1655,-2774,16092,0
6,1566,-388,298,-966,-1250,-2760,16089,0
6,1567,-2,-118,-332,-1336,-2573,16034,0
6,1568,226,252,212,-1675,-2321,15911,0
6,1569,108,588,-320,-1751,-2087,15743,0
6,1570,8,136,14,-2026,-1836,15646,0
6,1571,-296,-408,-44,-2099,-1569,15693,0
6,1572,-58,-800,-482,-2040,-1401,15931,0
6,1573,168,-1828,-330,-1523,-1534,16072,0
6,1574,616,-660,302,-1448,-1447,16145,0
6,1575,822,-188,96,-1506,-1216,16211,0
6,1576,1010,-858,532,-1718,-1021,16131,0
6,1577,854,-660,-76,-1775,-604,16045,0
6,1578,484,-880,62,-2039,-235,16269,0
6,1579,300,-1412,198,-1846,-263,16470,0
6,1580,-16,-626,740,-1660,-645,16791,0
6,1581,30,-568,694,-1452,-911,17059,0
6,1582,176,-764,198,-1388,-1163,17234,0
6,1583,368,-522,868,-1386,-1527,17394,0
6,1584,820,-476,1052,-1312,-1801,17393,0
6,1585,1698,-1030,568,-1409,-1885,17189,0
6,1586,1924,-810,890,-1531,-1548,16911,0
6,1587,1250,-1262,84,-1171,-1245,16660,0
6,1588,582,-2382,-966,-360,-1346,16363,0
6,1589,-294,-1354,-446,212,-1223,16376,0
6,1590,-1976,-1816,-862,378,-1428,16689,0
6,1591,-3442,-1320,-862,761,-2407,16927,0
6,1592,-3756,-348,-286,953,-3637,17197,0
6,1593,-3260,-1088,132,844,-4425,17312,0
6,1594,-1600,-730,374,363,-4612,16988,0
6,1595,-106,-1366,152,-279,-4280,16397,0
6,1596,1216,-1886,-390,-287,-3640,15938,0
6,1597,1396,-1528,-1854,119,-2787,15733,0
6,1598,968,-1284,-2280,523,-2491,15910,0
6,1599,774,494,-920,498,-2701,15910,0
6,1600,528,900,-1322,165,-3197,15722,0
6,1601,1124,714,-1578,-216,-3555,15507,0
6,1602,1564,1176,-1532,-396,-3585,15122,0
6,1603,1506,1396,-990,-454,-3427,14809,0
6,1604,2184,1338,-1670,-423,-3060,14570,0
6,1605,1622,1650,-1900,-314,-2676,14327,0
6,1606,898,796,-1704,-428,-2644,14195,0
6,1607,232,1142,-1462,-304,-2572,14221,0
6,1608,-732,934,-1552,-115,-2496,14336,0
6,1609,-1750,1384,-932,-264,-2676,14382,0
6,1610,-2178,1280,-644,-588,-2886,14422,0
6,1611,-2654,968,-1416,-642,-3087,14594,0
6,1612,-2684,148,-852,-670,-3302,14773,0
6,1613,-2538,-26,-814,-575,-3239,15052,0
6,1614,-2436,-1100,-816,-493,-3199,15376,0
6,1615,-1536,-858,-320,-533,-3217,15601,0
6,1616,-1052,-718,94,-572,-3084,15783,0
6,1617,-556,518,764,-778,-2814,15707,0
6,1618,-170,-430,844,-707,-2199,15487,0
6,1619,8,68,614,-470,-1598,15335,0
6,1620,-918,-14,868,-189,-1084,15203,0
6,1621,-1072,680,362,-166,-1037,15214,0
6,1622,-1538,726,-136,-105,-1138,15339,0
6,1623,-1546,402,-332,-344,-1411,15444,0
6,1624,-1222,956,-160,-617,-1675,15570,0
6,1625,-724,448,108,-765,-1736,15615,0
6,1626,-466,10,544,-821,-1627,15568,0
6,1627,-240,380,-160,-732,-1501,15420,0
6,1628,-240,-510,-10,-660,-1524,15339,0
6,1629,190,-164,-158,-454,-1465,15523,0
6,1630,-4,-176,-1116,-4,-1473,15785,0
6,1631,-126,980,-664,135,-1471,15904,0
6,1632,-420,2112,268,-191,-1855,15836,0
6,1633,154,1524,672,-725,-2030,15712,0
6,1634,528,530,36,-1028,-2125,15768,0
6,1635,1340,-48,96,-937,-2094,15815,0
6,1636,1394,-950,268,-515,-1893,15816,0
6,1637,1258,-188,-1094,-103,-1756,15830,0
6,1638,976,-488,-1116,389,-1440,15989,0
6,1639,686,588,-400,433,-1481,16044,0
6,1640,222,772,-206,-342,-1645,16171,0
6,1641,-410,610,-954,-775,-2112,16326,0
6,1642,-442,-60,-606,-579,-2642,16501,0
6,1643,-126,-476,-978,-135,-2921,16763,0
6,1644,256,-602,-1670,244,-3208,17012,0
6,1645,976,530,-1878,609,-3307,17218,0
6,1646,1496,228,-1762,365,-3133,17184,0
6,1647,2436,402,-1610,-758,-2242,16851,0
6,1648,1396,-2,-1898,-1732,-1556,16748,0
6,1649,450,-810,-2544,-1360,-1618,16451,0
6,1650,-824,-1434,-2970,-711,-1398,16769,0
6,1651,-2968,-1170,-2916,-346,-1895,17436,0
6,1652,-3984,-1146,-1796,-246,-3227,17832,0
6,1653,-4220,102,-2534,-324,-4008,18098,0
6,1654,-3972,-2,-2166,-557,-4770,17909,0
6,1655,-2326,-742,-2466,-619,-5269,17344,0
6,1656,-610,-2024,-3146,-767,-5365,16708,0
6,1657,764,-2048,-4182,-621,-4809,16155,0
6,1658,1946,-2256,-3504,-423,-4010,15796,0
6,1659,1970,-2324,-2578,-192,-3380,15719,0
6,1660,1136,-1424,-2810,496,-3112,15963,0
6,1661,402,1038,-1716,692,-3295,16106,0
6,1662,1036,1732,-228,-408,-3688,15801,0
6,1663,1800,922,-1140,-1588,-3754,15392,0
6,1664,2466,-776,-2708,-2194,-3452,15026,0
6,1665,2838,-1516,-2534,-1937,-3174,15012,0
6,1666,1720,-1932,-2858,-1273,-2902,15337,0
6,1667,650,-1586,-3146,-566,-2804,15808,0
6,1668,134,702,-2084,-271,-3138,15890,0
6,1669,-836,1038,-872,-650,-3577,15869,0
6,1670,-544,1476,-1832,-1000,-3829,15797,0
6,1671,-158,426,-1726,-1290,-3978,15644,0
6,1672,142,160,-2246,-1299,-3969,15576,0
6,1673,1134,276,-1704,-1312,-3768,15400,0
6,1674,944,-1170,-1554,-1182,-3380,15247,0
6,1675,822,78,-1174,-1121,-3137,14987,0
6,1676,698,552,-1578,-1211,-2990,14910,0
6,1677,290,124,-1658,-1231,-2901,14850,0
6,1678,404,-164,-1104,-1155,-2981,14781,0
6,1679,280,552,-1322,-1016,-3131,14705,0
6,1680,222,-452,-1450,-1139,-3279,14606,0
6,1681,852,-488,-1278,-1083,-3110,14649,0
6,1682,1304,-846,-1542,-798,-2853,14585,0
6,1683,832,-222,-1750,-607,-2567,14587,0
6,1684,392,-672,-1150,-460,-2335,14664,0
6,1685,42,-1054,-1566,-349,-2261,14646,0
6,1686,-622,-118,-2232,-355,-2430,14867,0
6,1687,-442,-394,-2512,-648,-2703,15132,0
6,1688,20,-268,-1970,-881,-2927,15217,0
6,1689,166,-684,-2696,-1004,-2908,15269,0
6,1690,560,-984,-1578,-726,-2658,15177,0
6,1691,312,-314,-1232,-500,-2198,15120,0
6,1692,258,-1112,-1944,-409,-1771,15043,0
6,1693,-70,-660,-2256,-534,-1545,15245,0
6,1694,212,-198,-1426,-507,-1459,15354,0
6,1695,268,102,-1576,-553,-1322,15459,0
6,1696,334,206,-1912,-707,-1214,15506,0
6,1697,730,-476,-1298,-911,-1126,15481,0
6,1698,450,-452,-1900,-1169,-976,15621,0
6,1699,604,-464,-2580,-1181,-796,15768,0
6,1700,204,-1308,-2060,-790,-539,16042,0
6,1701,-206,-764,-2984,-566,-416,16183,0
6,1702,-398,-256,-2800,-592,-446,16436,0
6,1703,-1220,-292,-1956,-536,-775,16938,0
6,1704,-960,252,-2188,-224,-1451,17170,0
6,1705,-996,-60,-2062,-184,-1934,17405,0
6,1706,-126,-696,-2188,-405,-2102,17360,0
6,1707,76,-1700,-3930,-288,-1858,17281,0
6,1708,-252,-1816,-3538,745,-1929,17206,0
6,1709,-2234,-996,-2938,1461,-1768,17403,0
6,1710,-3488,-314,-3330,1315,-2214,17797,0
6,1711,-4344,-442,-2846,1302,-3196,18007,0
6,1712,-4512,784,-1922,1449,-3991,18060,0
6,1713,-4232,702,-1786,1514,-4361,17784,0
6,1714,-4164,32,-1612,1690,-4588,17691,0
6,1715,-3430,540,-1658,2167,-5103,17650,0
6,1716,-2146,322,-2062,2464,-5430,17764,0
6,1717,-816,276,-2142,2213,-5270,17635,0
6,1718,1158,344,-2834,1856,-5144,17169,0
6,1719,2432,298,-3180,1368,-4610,16568,0
6,1720,2602,276,-3778,1065,-3777,16008,0
6,1721,1890,68,-3700,1080,-3453,15614,0
6,1722,1250,356,-3318,1234,-3400,15504,0
6,1723,618,356,-3826,1256,-3691,15442,0
6,1724,368,598,-3018,1189,-4178,15322,0
6,1725,898,-268,-3238,1242,-4367,15266,0
6,1726,954,-36,-3180,1452,-4432,15131,0
6,1727,956,-106,-3894,1600,-4359,15191,0
6,1728,1204,-406,-3548,1665,-4163,15164,0
6,1729,1768,726,-3434,1382,-4070,15146,0
6,1730,2002,876,-3088,1021,-3825,14922,0
6,1731,2164,888,-2948,611,-3493,14638,0
6,1732,2062,726,-3146,603,-2978,14244,0
6,1733,1518,414,-2904,783,-2579,14134,0
6,1734,920,344,-2662,925,-2198,14288,0
6,1735,202,842,-3236,1110,-2177,14357,0
6,1736,472,806,-2670,988,-2459,14448,0
6,1737,76,1466,-2408,580,-2468,14536,0
6,1738,266,494,-2730,493,-2518,14554,0
6,1739,620,332,-2036,672,-2381,14659,0
6,1740,414,484,-2074,849,-2107,14697,0
6,1741,-48,1142,-2800,1025,-1891,14696,0
6,1742,-16,1928,-2200,840,-1920,14612,0
6,1743,154,1940,-840,398,-1875,14547,0
6,1744,-240,946,-1474,126,-1831,14513,0
6,1745,-362,286,-1298,255,-1816,14566,0
6,1746,-194,506,-802,428,-1725,14738,0
6,1747,-16,830,-862,525,-1593,14824,0
6,1748,154,830,-332,370,-1541,15011,0
6,1749,616,1060,26,247,-1448,15149,0
6,1750,616,712,-632,288,-1301,15246,0
6,1751,718,552,-194,316,-1240,15270,0
6,1752,630,784,-272,423,-1132,15390,0
6,1753,798,1038,-390,446,-986,15402,0
6,1754,392,332,-552,453,-777,15470,0
6,1755,176,656,-310,591,-596,15530,0
6,1756,-578,1118,118,558,-686,15763,0
6,1757,-702,436,26,381,-1029,15930,0
6,1758,-286,1096,-216,203,-1195,16027,0
6,1759,-362,-292,-310,15,-1384,16300,0
6,1760,-60,-614,-356,117,-1359,16418,0
6,1761,-590,-210,-56,258,-1396,16570,0
6,1762,-1098,-234,164,562,-1700,16852,0
6,1763,-1018,-892,820,765,-2134,17331,0
6,1764,-534,-94,280,921,-2623,17764,0
6,1765,868,426,178,852,-2343,17841,0
6,1766,1090,-302,-678,3,-1654,17423,0
6,1767,922,-464,-608,-286,-1707,17108,0
6,1768,496,-1574,-976,-208,-1764,17108,0
6,1769,-228,-1388,-1402,-481,-1810,17169,0
6,1770,-884,-1642,-1220,-635,-2441,17154,0
6,1771,-1546,-2752,-480,-242,-2975,17058,0
6,1772,-2460,-2336,-1048,413,-3512,17039,0
6,1773,-2844,-1122,-932,895,-4207,16998,0
6,1774,-2684,-776,212,1136,-4840,16971,0
6,1775,-1976,-534,-620,871,-5264,16945,0
6,1776,-272,-72,-182,378,-5614,16727,0
6,1777,1394,-614,982,223,-5416,16179,0
6,1778,2544,-2,106,160,-4495,15540,0
6,1779,2996,124,130,-135,-3597,14890,0
6,1780,2466,-522,452,-395,-2946,14587,0
6,1781,2060,-1066,-1104,-291,-2421,14486,0
6,1782,1192,-1076,-1300,-312,-2334,14529,0
6,1783,-388,-418,-240,-247,-2471,14699,0
6,1784,-1602,-580,-724,-473,-2709,14755,0
6,1785,-2414,-614,-134,-531,-3133,15073,0
6,1786,-2980,-326,118,-186,-3882,15623,0
6,1787,-2708,-234,-734,274,-4514,15837,0
6,1788,-2180,-522,-1150,343,-5115,16198,0
6,1789,-1456,-522,-468,221,-5495,16174,0
6,1790,-24,-546,-758,457,-5443,16110,0
6,1791,638,-708,-1012,830,-5077,15853,0
6,1792,436,-36,-402,557,-4596,15683,0
6,1793,470,102,-1048,23,-4124,15429,0
6,1794,312,-256,-1048,-151,-3829,15411,0
6,1795,278,378,-608,-25,-3677,15224,0
6,1796,168,588,-860,61,-3604,15130,0
6,1797,494,738,-756,46,-3460,14939,0
6,1798,414,530,-482,-234,-3229,14759,0
6,1799,788,252,-898,-411,-2901,14677,0
6,1800,706,-996,-1866,-433,-2654,14625,0
6,1801,674,-48,-1532,-298,-2513,14704,0
6,1802,120,-442,-1048,-39,-2453,14861,0
6,1803,-24,-764,-906,36,-2522,14917,0
6,1804,-274,20,-1578,-74,-2601,15005,0
6,1805,-568,-268,-1820,-336,-2748,15161,0
6,1806,-668,-810,-1830,-562,-2828,15439,0
6,1807,-474,-834,-1356,-530,-2908,15687,0
6,1808,-182,-1342,-1506,-213,-3028,15841,0
6,1809,-140,-706,-1358,146,-3038,15877,0
6,1810,-60,-650,-920,314,-2992,15969,0
6,1811,560,-1342,-1244,355,-2868,15951,0
6,1812,888,-406,-1726,302,-2589,15875,0
6,1813,796,-1238,-1542,204,-2131,15893,0
6,1814,798,-384,-862,190,-1878,15816,0
6,1815,730,-1192,-1888,272,-1841,15774,0
6,1816,582,-1504,-862,242,-1996,15827,0
6,1817,920,-1066,-1162,406,-1991,15831,0
6,1818,852,-1332,-2096,436,-2118,16014,0
6,1819,1136,-1320,-2132,392,-2088,15997,0
7,1820,312,-1944,-114,-1908,-4177,16196,0
7,1821,548,-498,510,-2084,-4223,16012,0
7,1822,808,-2452,1120,-2556,-4142,15838,0
7,1823,1642,-3446,1882,-2680,-3813,15700,0
7,1824,1688,-3642,1098,-2406,-3081,15879,0
7,1825,1214,-4314,924,-1849,-2800,15518,0
7,1826,1292,-2938,1490,-1576,-2645,15107,0
7,1827,830,-3090,1074,-1701,-2540,15244,0
7,1828,638,-2996,890,-1580,-2648,15257,0
7,1829,628,-3608,752,-1197,-3036,15248,0
7,1830,706,-4392,798,-877,-2953,15468,0
7,1831,842,-2778,176,-678,-2972,15288,0
7,1832,1056,-2972,798,-554,-2763,15232,0
7,1833,572,-2418,890,-581,-2313,15377,0
7,1834,120,-2672,406,-561,-2451,15214,0
7,1835,210,-1804,130,-507,-2548,15124,0
7,1836,-252,-2614,176,-230,-2469,15431,0
7,1837,-420,-1528,-356,33,-2213,15573,0
7,1838,-700,-464,406,173,-1972,15616,0
7,1839,-918,-1122,186,279,-2019,15529,0
7,1840,-1436,956,-320,126,-2000,15446,0
7,1841,-1504,414,-252,-169,-2296,15579,0
7,1842,-836,552,-528,-190,-2410,15713,0
7,1843,-1074,-94,-1554,-309,-2325,15771,0
7,1844,-860,1014,-1358,-710,-2537,15757,0
7,1845,-804,-626,-598,-1163,-2597,15664,0
7,1846,-1232,-498,-852,-1277,-2687,15755,0
7,1847,-736,-660,-378,-985,-2844,15840,0
7,1848,-1042,-326,544,-700,-2776,15747,0
7,1849,-940,66,210,-758,-2593,15673,0
7,1850,-420,124,348,-801,-2393,15614,0
7,1851,-274,-638,1040,-792,-2254,15469,0
7,1852,30,-1216,210,-845,-2084,15436,0
7,1853,368,-1632,72,-672,-1879,15549,0
7,1854,188,-1472,290,-190,-1784,15622,0
7,1855,-14,-1238,154,70,-1746,15757,0
7,1856,-184,-1250,106,215,-1714,15901,0
7,1857,-106,-1066,440,291,-1935,16254,0
7,1858,42,-270,26,460,-1974,16508,0
7,1859,-172,-556,498,342,-2166,16508,0
7,1860,574,194,454,40,-2159,16395,0
7,1861,312,-764,232,-154,-1859,16471,0
7,1862,244,-1204,360,7,-1725,16445,0
7,1863,540,-1574,360,106,-1614,16806,0
7,1864,380,-1620,-620,504,-1389,17330,0
7,1865,154,-1066,-1532,1060,-1485,17735,0
7,1866,-962,436,-1278,1487,-1504,18127,0
7,1867,-1638,2506,-1992,988,-2004,18120,0
7,1868,-2124,1870,-1462,2,-3043,18267,0
7,1869,-1322,1892,-1394,-839,-4251,18410,0
7,1870,-748,1500,-1774,-641,-4413,18510,0
7,1871,-354,1616,-1508,-6,-4295,18410,0
7,1872,-172,3384,-1232,-118,-4733,17802,0
7,1873,-250,2886,-390,-1195,-5317,16908,0
7,1874,168,2402,-168,-2366,-5377,16131,0
7,1875,448,90,1120,-2912,-5415,15567,0
7,1876,1224,-2186,1848,-2273,-5515,15067,0
7,1877,2116,-3262,2032,-1113,-5322,14772,0
7,1878,2770,-4196,2054,-138,-4758,14436,0
7,1879,3062,-4670,2400,571,-4111,13811,0
7,1880,3130,-4786,1306,782,-3912,13136,0
7,1881,2996,-3064,924,1028,-3414,12624,0
7,1882,2274,-1932,-552,1563,-3259,12414,0
7,1883,1292,-556,-1070,1567,-3667,12450,0
7,1884,-264,1316,-1186,589,-4467,12658,0
7,1885,-1052,1452,-1048,-537,-5336,12973,0
7,1886,-2248,1316,-1670,-1244,-6069,13422,0
7,1887,-2766,1164,-1254,-1415,-6555,14057,0
7,1888,-3002,806,-770,-1395,-6813,14879,0
7,1889,-3206,920,-1300,-1262,-7037,15607,0
7,1890,-2958,610,-1048,-878,-6956,16246,0
7,1891,-2392,796,-608,-789,-6639,16377,0
7,1892,-1740,1442,-562,-1157,-6191,16221,0
7,1893,-1718,-72,36,-1610,-5722,15695,0
7,1894,-794,-706,382,-1974,-5571,15241,0
7,1895,-612,-1538,-620,-1946,-5334,15049,0
7,1896,-624,-2384,164,-1553,-5364,14688,0
7,1897,-904,-2128,1156,-1307,-5392,14450,0
7,1898,-1052,-2232,1848,-1210,-5193,14351,0
7,1899,-782,-2730,1848,-790,-4821,14438,0
7,1900,-1458,-1874,1236,-103,-4372,14588,0
7,1901,-1616,-1586,326,593,-4110,14929,0
7,1902,-1684,-1122,94,1036,-3918,15104,0
7,1903,-1830,504,-482,1224,-3537,15202,0
7,1904,-1706,1246,-470,1097,-3484,14928,0
7,1905,-1898,1338,-886,417,-3259,14818,0
7,1906,-1458,1362,-898,-26,-3131,14795,0
7,1907,-1604,1096,-1244,-322,-2976,14933,0
7,1908,-1794,1396,-2084,-542,-3022,15066,0
7,1909,-2112,888,-2846,-805,-3139,15161,0
7,1910,-1830,990,-2096,-960,-3329,15460,0
7,1911,-1694,886,-2858,-994,-3803,15752,0
7,1912,-1118,1246,-2972,-1133,-4092,16007,0
7,1913,-500,1072,-2800,-1121,-4163,15962,0
7,1914,436,1220,-2350,-1465,-4265,15760,0
7,1915,672,332,-2316,-1893,-4008,15527,0
7,1916,886,-418,-1370,-2043,-3584,15387,0
7,1917,1158,-754,-1566,-1458,-3462,15148,0
7,1918,944,-952,-1612,-1116,-3426,15204,0
7,1919,1102,-580,-1830,-1027,-3627,15176,0
7,1920,1372,-1736,-1416,-921,-3956,15007,0
7,1921,1440,-2338,-1924,-859,-3975,14949,0
7,1922,1710,-1412,-1590,-562,-4322,14594,0
7,1923,944,-3020,-1900,-462,-4137,14713,0
7,1924,1248,-2626,-1958,-439,-3929,14690,0
7,1925,1022,-1724,-2120,-389,-3720,15025,0
7,1926,424,-2614,-1624,-41,-3519,15597,0
7,1927,232,-1344,-2972,954,-3353,16319,0
7,1928,-162,-314,-2846,1737,-3033,17088,0
7,1929,-636,1384,-3262,1758,-2778,17459,0
7,1930,-1300,2632,-3964,775,-2185,17866,0
7,1931,-1594,3868,-4126,-274,-2271,17828,0
7,1932,-1830,3312,-4748,-1390,-2552,17737,0
7,1933,-1918,3672,-4784,-1908,-2601,18149,0
7,1934,-3070,3210,-4702,-2280,-2900,18869,0
7,1935,-3002,3234,-4460,-2841,-4661,19281,0
7,1936,-2168,2364,-5256,-3427,-6456,19860,0
7,1937,-2090,1050,-3838,-3222,-8222,19709,0
7,1938,-906,784,-2500,-2540,-9154,19099,0
7,1939,696,1118,-1012,-2252,-9484,17962,0
7,1940,1654,-1068,1074,-2319,-9429,16660,0
7,1941,2378,-2590,2552,-1729,-8525,15687,0
7,1942,2970,-3412,3796,-237,-7634,14490,0
7,1943,3130,-3376,3808,1123,-6961,13650,0
7,1944,2916,-3284,3508,2169,-6173,13231,0
7,1945,2578,-3088,3450,2867,-6203,12947,0
7,1946,2104,-4070,2482,2848,-6506,12667,0
7,1947,2228,-3930,994,3148,-6648,12457,0
7,1948,2364,-3850,752,3584,-6155,12398,0
7,1949,1778,-4060,140,3948,-5470,12470,0
7,1950,604,-2198,810,3808,-5085,12395,0
7,1951,-4,-1424,-102,3223,-4607,13132,0
7,1952,-1108,-1518,-656,2945,-4706,14070,0
7,1953,-1210,-720,-1786,3270,-5347,14643,0
7,1954,-1390,-892,-1624,3640,-5205,15344,0
7,1955,-1614,356,-2084,3558,-4885,15899,0
7,1956,-1198,1384,-1832,3064,-4755,16219,0
7,1957,-612,1708,-2142,2100,-5143,16020,0
7,1958,86,850,-1970,912,-5444,15522,0
7,1959,774,460,-1808,43,-5322,15103,0
7,1960,920,-592,-1254,-240,-5098,14634,0
7,1961,910,-684,-528,-390,-4829,14210,0
7,1962,932,-974,210,-369,-4458,14177,0
7,1963,934,-834,394,-88,-4035,14415,0
7,1964,650,-1216,-78,509,-3767,14525,0
7,1965,886,-556,1110,1101,-3243,14897,0
7,1966,120,-592,1294,1799,-2956,15214,0
7,1967,222,576,706,2310,-3102,15161,0
7,1968,-48,2100,648,2240,-3064,15223,0
7,1969,144,1430,614,1714,-3355,14991,0
7,1970,188,680,2,1279,-3407,14934,0
7,1971,-94,218,302,1007,-3672,14712,0
7,1972,492,-638,244,978,-3993,14546,0
7,1973,1000,-1308,1270,797,-3888,14383,0
7,1974,1270,-2116,1490,700,-3589,14172,0
7,1975,1202,-1714,1282,988,-3270,13950,0
7,1976,1292,-1712,1778,1340,-2672,14021,0
7,1977,470,-1966,1478,1521,-2229,14120,0
7,1978,426,-1066,546,1654,-2228,14460,0
7,1979,740,-1874,578,1929,-2240,14784,0
7,1980,1124,-868,878,2137,-2183,14892,0
7,1981,1484,102,786,2042,-2101,14818,0
7,1982,1168,-602,1132,1710,-1950,14846,0
7,1983,1248,-580,1790,1568,-1849,14900,0
7,1984,864,-1124,372,1599,-1894,15058,0
7,1985,978,-510,200,1780,-1813,15278,0
7,1986,334,194,418,1997,-1841,15537,0
7,1987,-444,1200,106,1861,-2100,15542,0
7,1988,-960,1904,498,1254,-2458,15828,0
7,1989,-996,692,844,846,-2654,16223,0
7,1990,-1222,-118,280,986,-2900,16899,0
7,1991,-1052,182,510,1562,-3111,17624,0
7,1992,-984,888,1214,2174,-3466,18193,0
7,1993,-1052,1522,902,2197,-3874,18398,0
7,1994,-782,3116,1582,1906,-4194,18329,0
7,1995,-388,2436,2320,1674,-4508,18114,0
7,1996,-420,2332,1466,1878,-4024,18400,0
7,1997,-814,3452,1860,2476,-3580,18662,0
7,1998,-1098,3486,1698,2661,-3876,19223,0
7,1999,-1604,3418,394,2790,-4399,19596,0
7,2000,-1302,4918,-366,2564,-5181,19540,0
7,2001,-1152,4274,-1126,1340,-6331,18942,0
7,2002,-544,2944,-2304,101,-7183,17649,0
7,2003,348,2736,-1220,-807,-7675,16031,0
7,2004,898,760,-160,-1640,-7647,14692,0
7,2005,1282,-1102,82,-2001,-7512,13650,0
7,2006,2150,-1586,186,-1509,-7377,13048,0
7,2007,3424,-3342,510,-483,-7006,12515,0
7,2008,3446,-3468,890,284,-6091,12067,0
7,2009,3762,-2244,1386,385,-5124,11408,0
7,2010,3232,-2314,924,204,-4374,11072,0
7,2011,1812,-1296,718,-9,-3929,11073,0
7,2012,662,-1354,1144,113,-3787,11243,0
7,2013,-770,344,406,475,-3723,11970,0
7,2014,-2334,2148,650,1031,-3940,12867,0
7,2015,-3476,2968,590,667,-4350,13804,0
7,2016,-4502,3036,-516,246,-4715,14663,0
7,2017,-4874,2920,-1012,-4,-5318,15715,0
7,2018,-4434,1488,-1150,-169,-6255,16420,0
7,2019,-3362,264,-2616,-351,-7525,16803,0
7,2020,-2066,-1760,-1992,-328,-8614,16748,0
7,2021,-364,-1608,-966,-565,-8924,16287,0
7,2022,470,-2050,-690,-405,-8322,15546,0
7,2023,558,-1344,1294,-487,-7282,14687,0
7,2024,76,-2244,2366,-904,-6353,13878,0
7,2025,-330,-3238,544,-746,-5345,13616,0
7,2026,-726,-2522,694,-47,-4605,13681,0
7,2027,-1546,-3456,534,771,-4018,14060,0
7,2028,-2022,-2070,336,1422,-3829,14563,0
7,2029,-2090,-374,452,1813,-3781,14765,0
7,2030,-2188,298,-458,1588,-3720,14867,0
7,2031,-2428,-386,-770,758,-3952,14978,0
7,2032,-2066,-558,-170,-17,-4229,15021,0
7,2033,-1818,-1608,-1036,-117,-4525,15225,0
7,2034,-1762,-1088,-1520,64,-4877,15393,0
7,2035,-1120,-626,-1174,322,-5014,15412,0
7,2036,-568,124,-966,219,-4809,15483,0
7,2037,-668,-546,-1486,-53,-4561,15377,0
7,2038,-760,356,-908,-45,-4243,15207,0
7,2039,-444,-256,-816,-26,-3814,15274,0
7,2040,-308,-556,-1532,34,-3724,15388,0
7,2041,18,-522,-1462,326,-3896,15406,0
7,2042,42,-498,-2524,378,-3735,15511,0
7,2043,258,-360,-2498,27,-3724,15321,0
7,2044,492,264,-2038,-342,-3577,15390,0
7,2045,864,-464,-2408,-433,-3416,15461,0
7,2046,696,-696,-2962,-327,-3210,15576,0
7,2047,402,-302,-2396,-213,-3393,15746,0
7,2048,-82,-314,-2500,-211,-3529,16121,0
7,2049,210,-198,-2938,-326,-4030,16181,0
7,2050,100,644,-3284,-374,-4237,16418,0
7,2051,-82,-28,-2938,-269,-4246,16501,0
7,2052,52,-164,-2926,-7,-4137,16596,0
7,2053,876,-256,-1958,233,-3978,16621,0
7,2054,402,-2,-2708,436,-3715,16750,0
7,2055,628,-304,-3122,876,-3457,17029,0
7,2056,594,-130,-2766,1798,-3311,17411,0
7,2057,-150,482,-3112,2435,-3180,17867,0
7,2058,-1492,-48,-4356,1880,-3795,18548,0
7,2059,-1864,518,-5522,844,-5365,18528,0
7,2060,-1842,10,-5440,491,-6454,18317,0
7,2061,-1660,1488,-5980,-31,-7365,17865,0
7,2062,-1052,748,-4714,-374,-8071,17224,0
7,2063,86,1430,-3238,-534,-8592,16054,0
7,2064,628,1338,-1796,-1356,-8081,15096,0
7,2065,1552,1140,694,-1843,-7675,14036,0
7,2066,1834,726,2654,-2218,-6838,13335,0
7,2067,2374,-1830,2182,-1893,-6184,13063,0
7,2068,2814,-3250,2700,-995,-5797,13072,0
7,2069,3458,-4486,3012,145,-5308,13132,0
7,2070,3750,-5906,2782,1745,-4432,13367,0
7,2071,2894,-3792,2896,3163,-3649,13888,0
7,2072,1574,-3342,2240,3912,-3261,14692,0
7,2073,188,-2108,1548,4249,-3427,15480,0
7,2074,-1098,-510,832,4554,-4113,16092,0
7,2075,-2100,806,-608,4734,-5333,16450,0
7,2076,-2042,1824,-1682,3723,-6871,16685,0
7,2077,-1334,1778,-1244,2514,-8069,16665,0
7,2078,458,1558,-310,1711,-8749,16078,0
7,2079,1472,160,544,781,-7847,15509,0
